Folder: AMIDR/Analyzed Data/217

Note: README (Instructions to get started).md
# Instructions
AMIDR runs on python with Jupyter Notebook. To begin, follow these instructions:

1. Download Anaconda at https://www.anaconda.com/download
2. Open up Anaconda and run Jupyter Notebook, which should open up in your browser
3. Download and extract this repository if you have not done so already
4. Navigate to "User Interface.ipynb" and continue from there

# File and Folder Descriptions
- Analyzed Data: All data analyzed in the paper "AMIDR: A Complete Pulse Method for Measuring Cathode Solid-State Diffusivity".
- Figures: All figures and their construction.
- Fresh Data: Raw data not yet analyzed. Feel free to use this for practice.
- Protocols: BioLogic protocols used for AMIDR testing.
- Batch Analysis.ipynb: One-button notebook for updating analysis.
- Dev Interface.ipynb: Similar to User Interface except used for future development.
- User Interface.ipynb: Where to perfrom AMIDR analysis.
- amidr.py: Backend code for AMIDR analysis. Experienced users can feel free to edit.

File: 217_230227_C03.mpt
EC-Lab ASCII FILE
Nb header lines : 95

Modulo Bat

Run on channel : 3 (SN 55231)
User :
CE vs. WE compliance from -10 V to 10 V
Electrode connection : standard
Potential control : Ewe
Ewe ctrl range : min = -10.00 V, max = 10.00 V
Safety Limits :
	Do not start on E overload
Acquisition started on : 02/27/2023 14:23:33.354
Technique started on : 02/27/2023 14:23:33.354
Loaded Setting File :  C:\Users\OEMS\Documents\EC-Lab\Data\Mitch\Protocols\AMIDR Form.mps
Saved on :
	File : 217_230227_C03.mpr
	Directory : C:\Users\OEMS\Documents\EC-Lab\Data\Mitch\Results\Formation\
	Host : 192.168.1.58
Device : VMP-3e (SN .003109)
Address : USB
EC-Lab for windows v11.43 (software)
Internet server v11.40 (firmware)
Command interpretor v11.40 (firmware)
Electrode material :
Initial state :
Electrolyte :
Comments :
Mass of active material : 0.001 mg
 at x = 0.000
Molecular weight of active material (at x = 0) : 0.001 g/mol
Atomic weight of intercalated ion : 0.001 g/mol
Acquisition started at : xo = 0.000
Number of e- transfered per intercalated ion : 1
for DX = 1, DQ = 26.802 mA.h
Battery capacity : 0.167 mA.h
Electrode surface area : 0.001 cm²
Characteristic mass : 0.001 g
Volume (V) : 0.001 cm³
Record Ece
Cycle Definition : Charge/Discharge alternance
Ns                  0                   1                   2                   3
ctrl_type           CC                  CC                  CC                  CV
Apply I/C           C / N               C / N               C / N               C / N
current/potential   current             current             current             current
ctrl1_val           60.000              60.000              60.000              0.000
ctrl1_val_unit      µA                  µA                  µA                  V
ctrl1_val_vs        <None>              <None>              <None>              Emeas
ctrl2_val
ctrl2_val_unit
ctrl2_val_vs
ctrl3_val
ctrl3_val_unit
ctrl3_val_vs
N                   20.00               20.00               20.00               20.00
charge/discharge    Charge              Discharge           Charge              Charge
charge/discharge_1  Charge              Charge              Charge              Charge
Apply I/C_1         I                   I                   I                   I
N1                  0.00                0.00                0.00                0.00
ctrl4_val
ctrl4_val_unit
ctrl_seq            0                   0                   0                   0
ctrl_repeat         0                   0                   0                   0
ctrl_trigger        Falling Edge        Falling Edge        Falling Edge        Falling Edge
ctrl_TO_t           0.000               0.000               0.000               0.000
ctrl_TO_t_unit      d                   d                   d                   d
ctrl_Nd             6                   6                   6                   6
ctrl_Na             2                   2                   2                   2
ctrl_corr           0                   0                   0                   0
lim_nb              1                   1                   1                   1
lim1_type           Ewe-Ece             Ewe-Ece             Ewe-Ece             Time
lim1_comp           >                   <                   >                   >
lim1_Q              Q limit             Q limit             Q limit             Q limit
lim1_value          4.300               3.000               4.300               15.000
lim1_value_unit     V                   V                   V                   mn
lim1_action         Next sequence       Next sequence       Next sequence       Next sequence
lim1_seq            1                   2                   3                   4
rec_nb              2                   2                   2                   1
rec1_type           Time                Time                Time                Time
rec1_value          20.000              20.000              20.000              30.000
rec1_value_unit     mn                  mn                  mn                  s
rec2_type           Ewe-Ece             Ewe-Ece             Ewe-Ece             Ewe-Ece
rec2_value          0.010               0.010               0.010               0.010
rec2_value_unit     V                   V                   V                   V
E range min (V)     -10.000             -10.000             -10.000             -10.000
E range max (V)     10.000              10.000              10.000              10.000
I Range             10 µA               10 µA               10 µA               10 µA
I Range min         Unset               Unset               Unset               Unset
I Range max         Unset               Unset               Unset               Unset
I Range init        Unset               Unset               Unset               Unset
auto rest           0                   0                   0                   0
Bandwidth           5                   5                   5                   5

mode	ox/red	error	control changes	Ns changes	counter inc.	Ns	I Range	time/s	control/V/mA	Ewe/V	I/mA	dq/mA.h	(Q-Qo)/mA.h	|Energy|/W.h	Q charge/discharge/mA.h	half cycle	Ece/V	Energy charge/W.h	Energy discharge/W.h	Capacitance charge/µF	Capacitance discharge/µF	x	Q discharge/mA.h	Q charge/mA.h	Capacity/mA.h	Efficiency/%	control/V	control/mA	cycle number	P/W	Ewe-Ece/V	R/Ohm
1	1	0	1	0	0	0	14	0.000000000000000E+000	0.00835	3.88331	0.00830255	0.000000000000000E+000	0.000000000000000E+000	0.000000000000000E+000	0.000000000000000E+000	0	-0.304199	0.000000000000000E+000	0.000000000000000E+000	0.000000000000000E+000	0.000000000000000E+000	0.000000000000000E+000	0.000000000000000E+000	0.000000000000000E+000	0.000000000000000E+000	0.0000000E+000	0.0000000E+000	0.00835	0.000000000000000E+000	3.22414e-05	4.18751	467725
1	0	0	0	0	0	1	14	10.1588	-0.00835	3.88055	-0.00835284	-8.74757e-07	2.18084e-05	9.16031e-08	-8.74757e-07	1	-0.303152	8.82055e-08	3.39762e-09	0.000000000000000E+000	0.000000000000000E+000	-8.137e-07	8.74757e-07	0.000000000000000E+000	8.74757e-07	0.0000000E+000	0.0000000E+000	-0.00835	0.000000000000000E+000	-3.24136e-05	4.1837	464578
1	1	0	1	0	0	2	14	13.4794	0.00835	3.88255	0.00834814	5.7326e-07	1.52513e-05	1.21472e-07	5.7326e-07	2	-0.306393	2.22404e-09	0.000000000000000E+000	0.000000000000000E+000	0.000000000000000E+000	-5.69046e-07	0.000000000000000E+000	5.7326e-07	5.7326e-07	0.0000000E+000	0.0000000E+000	0.00835	1	3.24121e-05	4.18895	465080
1	1	0	1	0	0	2	14	1247.94	0.00835	3.89603	0.00834871	0.00263902	0.00287792	1.12659e-05	0.00286324	2	-0.312989	1.11466e-05	0.000000000000000E+000	0.000000000000000E+000	0.000000000000000E+000	-0.000107379	0.000000000000000E+000	0.00286324	0.00286324	0.0000000E+000	0.0000000E+000	0.00835	1	3.25268e-05	4.20902	466663
1	1	0	1	0	0	2	14	3647.94	0.00835	3.90925	0.00834839	0.00278278	0.00844349	3.29803e-05	0.00842881	2	-0.315182	3.28611e-05	0.000000000000000E+000	0.000000000000000E+000	0.000000000000000E+000	-0.000315038	0.000000000000000E+000	0.00842881	0.00842881	0.0000000E+000	0.0000000E+000	0.00835	1	3.26359e-05	4.22443	468263
1	1	0	1	0	0	2	14	5510.99	0.00835	3.9285	0.00834814	0.00197434	0.0127639	4.99077e-05	0.0127492	2	-0.315983	4.97884e-05	0.000000000000000E+000	0.000000000000000E+000	0.000000000000000E+000	-0.000476237	0.000000000000000E+000	0.0127492	0.0127492	0.0000000E+000	0.0000000E+000	0.00835	1	3.27957e-05	4.24449	470584
1	1	0	1	0	0	2	14	6830.48	0.00835	3.94849	0.00834807	0.00140831	0.0158237	6.19566e-05	0.015809	2	-0.316059	6.18373e-05	0.000000000000000E+000	0.000000000000000E+000	0.000000000000000E+000	-0.000590403	0.000000000000000E+000	0.015809	0.015809	0.0000000E+000	0.0000000E+000	0.00835	1	3.29622e-05	4.26454	472982
1	1	0	1	0	0	2	14	7819.08	0.00835	3.96843	0.00834807	0.00107556	0.0181162	7.103e-05	0.0181016	2	-0.316173	7.09107e-05	0.000000000000000E+000	0.000000000000000E+000	0.000000000000000E+000	-0.000675941	0.000000000000000E+000	0.0181016	0.0181016	0.0000000E+000	0.0000000E+000	0.00835	1	3.31287e-05	4.2846	475371
1	1	0	1	0	0	2	14	8446.87	0.00835	3.98393	0.00834775	0.000498163	0.0195721	7.68181e-05	0.0195574	2	-0.31604	7.66989e-05	0.000000000000000E+000	0.000000000000000E+000	0.000000000000000E+000	-0.00073026	0.000000000000000E+000	0.0195574	0.0195574	0.0000000E+000	0.0000000E+000	0.00835	1	3.32569e-05	4.29997	477246
2	1	0	0	1	0	3	14	8446.87	3.98396	3.98387	0.00829918	2.78005e-09	0.0195721	7.68181e-05	0.0195574	2	-0.315983	7.66989e-05	0.000000000000000E+000	0.000000000000000E+000	0.000000000000000E+000	-0.000730261	0.000000000000000E+000	0.0195574	0.0195574	0.0000000E+000	3.98396	0.0000000E+000	1	3.30629e-05	4.29986	480032
2	1	0	0	0	0	3	14	8506.87	3.98396	3.98437	0.00771438	6.78391e-05	0.0197097	7.73667e-05	0.019695	2	-0.316002	7.72474e-05	0.000000000000000E+000	0.000000000000000E+000	0.000000000000000E+000	-0.000735395	0.000000000000000E+000	0.019695	0.019695	0.0000000E+000	3.98396	0.0000000E+000	1	3.07369e-05	4.30037	516486
2	1	0	0	0	0	3	14	8566.87	3.98396	3.98435	0.00774413	6.50444e-05	0.0198411	7.78902e-05	0.0198264	2	-0.315925	7.7771e-05	0.000000000000000E+000	0.000000000000000E+000	0.000000000000000E+000	-0.000740297	0.000000000000000E+000	0.0198264	0.0198264	0.0000000E+000	3.98396	0.0000000E+000	1	3.08553e-05	4.30027	514499
2	1	0	0	0	0	3	14	8626.87	3.98396	3.98435	0.0076206	6.28043e-05	0.0199678	7.8395e-05	0.0199531	2	-0.315811	7.82757e-05	0.000000000000000E+000	0.000000000000000E+000	0.000000000000000E+000	-0.000745024	0.000000000000000E+000	0.0199531	0.0199531	0.0000000E+000	3.98396	0.0000000E+000	1	3.03631e-05	4.30016	522839
2	1	0	0	0	0	3	14	8686.87	3.98396	3.98446	0.0073638	6.08389e-05	0.0200904	7.88836e-05	0.0200757	2	-0.315868	7.87643e-05	0.000000000000000E+000	0.000000000000000E+000	0.000000000000000E+000	-0.0007496	0.000000000000000E+000	0.0200757	0.0200757	0.0000000E+000	3.98396	0.0000000E+000	1	2.93408e-05	4.30033	541088
2	1	0	0	0	0	3	14	8746.87	3.98396	3.98441	0.00701609	5.90876e-05	0.0202094	7.93579e-05	0.0201947	2	-0.315868	7.92386e-05	0.000000000000000E+000	0.000000000000000E+000	0.000000000000000E+000	-0.000754041	0.000000000000000E+000	0.0201947	0.0201947	0.0000000E+000	3.98396	0.0000000E+000	1	2.79549e-05	4.30027	567896
2	1	0	0	0	0	3	14	8806.87	3.98396	3.98422	0.00686382	5.74694e-05	0.0203252	7.9819e-05	0.0203105	2	-0.315925	7.96998e-05	0.000000000000000E+000	0.000000000000000E+000	0.000000000000000E+000	-0.000758359	0.000000000000000E+000	0.0203105	0.0203105	0.0000000E+000	3.98396	0.0000000E+000	1	2.73469e-05	4.30014	580467
2	1	0	0	0	0	3	14	8866.87	3.98396	3.98429	0.00653435	5.59796e-05	0.0204378	8.0268e-05	0.0204232	2	-0.315716	8.01487e-05	0.000000000000000E+000	0.000000000000000E+000	0.000000000000000E+000	-0.000762564	0.000000000000000E+000	0.0204232	0.0204232	0.0000000E+000	3.98396	0.0000000E+000	1	2.60348e-05	4.30001	609746
2	1	0	0	0	0	3	14	8926.87	3.98396	3.98431	0.00634221	5.4591e-05	0.0205477	8.07057e-05	0.020533	2	-0.315697	8.05865e-05	0.000000000000000E+000	0.000000000000000E+000	0.000000000000000E+000	-0.000766663	0.000000000000000E+000	0.020533	0.020533	0.0000000E+000	3.98396	0.0000000E+000	1	2.52693e-05	4.30001	628221
2	1	0	0	0	0	3	14	8986.87	3.98396	3.98439	0.00631519	5.3288e-05	0.0206549	8.11329e-05	0.0206403	2	-0.315811	8.10137e-05	0.000000000000000E+000	0.000000000000000E+000	0.000000000000000E+000	-0.000770663	0.000000000000000E+000	0.0206403	0.0206403	0.0000000E+000	3.98396	0.0000000E+000	1	2.51622e-05	4.3002	630921
2	1	0	0	0	0	3	14	9046.87	3.98396	3.98448	0.00623336	5.20616e-05	0.0207596	8.15502e-05	0.020745	2	-0.315716	8.14309e-05	0.000000000000000E+000	0.000000000000000E+000	0.000000000000000E+000	-0.00077457	0.000000000000000E+000	0.020745	0.020745	0.0000000E+000	3.98396	0.0000000E+000	1	2.48367e-05	4.3002	639219
2	1	0	0	0	0	3	14	9106.87	3.98396	3.98435	0.00614626	5.08997e-05	0.020862	8.19581e-05	0.0208473	2	-0.315754	8.18388e-05	0.000000000000000E+000	0.000000000000000E+000	0.000000000000000E+000	-0.00077839	0.000000000000000E+000	0.0208473	0.0208473	0.0000000E+000	3.98396	0.0000000E+000	1	2.44889e-05	4.3001	648256
2	1	0	0	0	0	3	14	9166.87	3.98396	3.98441	0.00583485	4.97808e-05	0.0209621	8.2357e-05	0.0209475	2	-0.315735	8.22377e-05	0.000000000000000E+000	0.000000000000000E+000	0.000000000000000E+000	-0.000782125	0.000000000000000E+000	0.0209475	0.0209475	0.0000000E+000	3.98396	0.0000000E+000	1	2.32484e-05	4.30014	682864
2	1	0	0	0	0	3	14	9226.87	3.98396	3.98446	0.00564634	4.87197e-05	0.0210601	8.27473e-05	0.0210454	2	-0.315601	8.2628e-05	0.000000000000000E+000	0.000000000000000E+000	0.000000000000000E+000	-0.000785781	0.000000000000000E+000	0.0210454	0.0210454	0.0000000E+000	3.98396	0.0000000E+000	1	2.24976e-05	4.30007	705672
2	1	0	0	0	0	3	14	9286.87	3.98396	3.98433	0.00574546	4.77088e-05	0.021156	8.31295e-05	0.0211413	2	-0.31562	8.30102e-05	0.000000000000000E+000	0.000000000000000E+000	0.000000000000000E+000	-0.00078936	0.000000000000000E+000	0.0211413	0.0211413	0.0000000E+000	3.98396	0.0000000E+000	1	2.28918e-05	4.29995	693475
2	1	0	0	0	0	3	14	9346.87	3.98396	3.98448	0.00581463	4.67491e-05	0.02125	8.35039e-05	0.0212353	2	-0.315525	8.33847e-05	0.000000000000000E+000	0.000000000000000E+000	0.000000000000000E+000	-0.000792866	0.000000000000000E+000	0.0212353	0.0212353	0.0000000E+000	3.98396	0.0000000E+000	1	2.31683e-05	4.30001	685251