Folder: AMIDR/Analyzed Data/243

Note: README (Instructions to get started).md
# Instructions
AMIDR runs on python with Jupyter Notebook. To begin, follow these instructions:

1. Download Anaconda at https://www.anaconda.com/download
2. Open up Anaconda and run Jupyter Notebook, which should open up in your browser
3. Download and extract this repository if you have not done so already
4. Navigate to "User Interface.ipynb" and continue from there

# File and Folder Descriptions
- Analyzed Data: All data analyzed in the paper "AMIDR: A Complete Pulse Method for Measuring Cathode Solid-State Diffusivity".
- Figures: All figures and their construction.
- Fresh Data: Raw data not yet analyzed. Feel free to use this for practice.
- Protocols: BioLogic protocols used for AMIDR testing.
- Batch Analysis.ipynb: One-button notebook for updating analysis.
- Dev Interface.ipynb: Similar to User Interface except used for future development.
- User Interface.ipynb: Where to perfrom AMIDR analysis.
- amidr.py: Backend code for AMIDR analysis. Experienced users can feel free to edit.

File: 243_230502_C06.mpt
EC-Lab ASCII FILE
Nb header lines : 95

Modulo Bat

Run on channel : 6 (SN 55238)
User : Mitch
CE vs. WE compliance from -10 V to 10 V
Electrode connection : standard
Potential control : Ewe
Ewe ctrl range : min = -10.00 V, max = 10.00 V
Safety Limits :
	Do not start on E overload
Acquisition started on : 05/02/2023 14:36:12.211
Technique started on : 05/02/2023 14:36:12.211
Loaded Setting File :  C:\Users\OEMS\Documents\EC-Lab\Data\Mitch\Protocols\AMIDR Form.mps
Saved on :
	File : 243_230502_C06.mpr
	Directory : C:\Users\OEMS\Documents\EC-Lab\Data\Mitch\Results\Formation\
	Host : 192.168.1.58
Device : VMP-3e (SN .003109)
Address : USB
EC-Lab for windows v11.43 (software)
Internet server v11.40 (firmware)
Command interpretor v11.40 (firmware)
Electrode material :
Initial state :
Electrolyte :
Comments :
Mass of active material : 1.259 mg
 at x = 0.000
Molecular weight of active material (at x = 0) : 0.001 g/mol
Atomic weight of intercalated ion : 0.001 g/mol
Acquisition started at : xo = 0.000
Number of e- transfered per intercalated ion : 1
for DX = 1, DQ = 33743.085 mA.h
Battery capacity : 0.283 mA.h
Electrode surface area : 0.001 cm²
Characteristic mass : 0.001 g
Volume (V) : 0.001 cm³
Record Ece
Cycle Definition : Charge/Discharge alternance
Ns                  0                   1                   2                   3
ctrl_type           CC                  CC                  CC                  CV
Apply I/C           C / N               C / N               C / N               C / N
current/potential   current             current             current             current
ctrl1_val           60.000              60.000              60.000              0.000
ctrl1_val_unit      µA                  µA                  µA                  V
ctrl1_val_vs        <None>              <None>              <None>              Emeas
ctrl2_val
ctrl2_val_unit
ctrl2_val_vs
ctrl3_val
ctrl3_val_unit
ctrl3_val_vs
N                   20.00               20.00               20.00               20.00
charge/discharge    Charge              Discharge           Charge              Charge
charge/discharge_1  Charge              Charge              Charge              Charge
Apply I/C_1         I                   I                   I                   I
N1                  0.00                0.00                0.00                0.00
ctrl4_val
ctrl4_val_unit
ctrl_seq            0                   0                   0                   0
ctrl_repeat         0                   0                   0                   0
ctrl_trigger        Falling Edge        Falling Edge        Falling Edge        Falling Edge
ctrl_TO_t           0.000               0.000               0.000               0.000
ctrl_TO_t_unit      d                   d                   d                   d
ctrl_Nd             6                   6                   6                   6
ctrl_Na             2                   2                   2                   2
ctrl_corr           0                   0                   0                   0
lim_nb              1                   1                   1                   1
lim1_type           Ewe-Ece             Ewe-Ece             Ewe-Ece             Time
lim1_comp           >                   <                   >                   >
lim1_Q              Q limit             Q limit             Q limit             Q limit
lim1_value          4.200               3.000               4.200               15.000
lim1_value_unit     V                   V                   V                   mn
lim1_action         Next sequence       Next sequence       Next sequence       Next sequence
lim1_seq            1                   2                   3                   4
rec_nb              2                   2                   2                   1
rec1_type           Time                Time                Time                Time
rec1_value          20.000              20.000              20.000              30.000
rec1_value_unit     mn                  mn                  mn                  s
rec2_type           Ewe-Ece             Ewe-Ece             Ewe-Ece             Ewe-Ece
rec2_value          0.010               0.010               0.010               0.010
rec2_value_unit     V                   V                   V                   V
E range min (V)     -10.000             -10.000             -10.000             -10.000
E range max (V)     10.000              10.000              10.000              10.000
I Range             10 µA               10 µA               10 µA               10 µA
I Range min         Unset               Unset               Unset               Unset
I Range max         Unset               Unset               Unset               Unset
I Range init        Unset               Unset               Unset               Unset
auto rest           0                   0                   0                   0
Bandwidth           5                   5                   5                   5

mode	ox/red	error	control changes	Ns changes	counter inc.	Ns	I Range	time/s	control/V/mA	Ewe/V	I/mA	dq/mA.h	(Q-Qo)/mA.h	|Energy|/W.h	Q charge/discharge/mA.h	half cycle	Ece/V	Energy charge/W.h	Energy discharge/W.h	Capacitance charge/µF	Capacitance discharge/µF	x	Q discharge/mA.h	Q charge/mA.h	Capacity/mA.h	Efficiency/%	control/V	control/mA	cycle number	P/W	Ewe-Ece/V	R/Ohm
1	1	0	1	0	0	0	14	0.000000000000000E+000	0.01415	1.32548	0.0140641	0.000000000000000E+000	0.000000000000000E+000	0.000000000000000E+000	0.000000000000000E+000	0	-0.317317	0.000000000000000E+000	0.000000000000000E+000	0.000000000000000E+000	0.000000000000000E+000	0.000000000000000E+000	0.000000000000000E+000	0.000000000000000E+000	0.000000000000000E+000	0.0000000E+000	0.0000000E+000	0.01415	0.000000000000000E+000	1.86417e-05	1.64279	94245.1
1	1	0	1	0	0	0	14	4051.9	0.01415	1.50533	0.0141541	0.000795398	0.0159305	2.25461e-05	0.0159305	0	-0.318117	2.25461e-05	0.000000000000000E+000	0.000000000000000E+000	0.000000000000000E+000	-4.72112e-07	0.000000000000000E+000	0.0159305	0.0159305	0.0000000E+000	0.0000000E+000	0.01415	0.000000000000000E+000	2.13066e-05	1.82344	106352
1	1	0	1	0	0	0	14	5971.3	0.01415	1.68708	0.014154	0.000218897	0.0234769	3.44392e-05	0.0234769	0	-0.31701	3.44392e-05	0.000000000000000E+000	0.000000000000000E+000	0.000000000000000E+000	-6.95755e-07	0.000000000000000E+000	0.0234769	0.0234769	0.0000000E+000	0.0000000E+000	0.01415	0.000000000000000E+000	2.38789e-05	2.00409	119194
1	1	0	1	0	0	0	14	6679.68	0.01415	1.86791	0.014154	0.000114984	0.026262	3.9362e-05	0.026262	0	-0.316896	3.9362e-05	0.000000000000000E+000	0.000000000000000E+000	0.000000000000000E+000	-7.78294e-07	0.000000000000000E+000	0.026262	0.026262	0.0000000E+000	0.0000000E+000	0.01415	0.000000000000000E+000	2.64385e-05	2.18481	131971
1	1	0	1	0	0	0	14	7083.62	0.01415	2.04892	0.0141539	7.03221e-05	0.0278502	4.24605e-05	0.0278502	0	-0.316514	4.24605e-05	0.000000000000000E+000	0.000000000000000E+000	0.000000000000000E+000	-8.25359e-07	0.000000000000000E+000	0.0278502	0.0278502	0.0000000E+000	0.0000000E+000	0.01415	0.000000000000000E+000	2.90002e-05	2.36543	144760
1	1	0	1	0	0	0	14	7348.88	0.01415	2.22974	0.0141538	4.93609e-05	0.0288931	4.46858e-05	0.0288931	0	-0.316457	4.46858e-05	0.000000000000000E+000	0.000000000000000E+000	0.000000000000000E+000	-8.56266e-07	0.000000000000000E+000	0.0288931	0.0288931	0.0000000E+000	0.0000000E+000	0.01415	0.000000000000000E+000	3.15591e-05	2.54619	157537
1	1	0	1	0	0	0	14	7543.42	0.01415	2.4104	0.0141544	3.78478e-05	0.0296579	4.64573e-05	0.0296579	0	-0.316381	4.64573e-05	0.000000000000000E+000	0.000000000000000E+000	0.000000000000000E+000	-8.78933e-07	0.000000000000000E+000	0.0296579	0.0296579	0.0000000E+000	0.0000000E+000	0.01415	0.000000000000000E+000	3.41178e-05	2.72678	170293
1	1	0	1	0	0	0	14	7703.21	0.01415	2.59122	0.0141543	3.21051e-05	0.0302862	4.8027e-05	0.0302862	0	-0.316228	4.8027e-05	0.000000000000000E+000	0.000000000000000E+000	0.000000000000000E+000	-8.97552e-07	0.000000000000000E+000	0.0302862	0.0302862	0.0000000E+000	0.0000000E+000	0.01415	0.000000000000000E+000	3.66768e-05	2.90744	183070
1	1	0	1	0	0	0	14	7838.95	0.01415	2.77182	0.0141538	2.77158e-05	0.0308199	4.9457e-05	0.0308199	0	-0.316247	4.9457e-05	0.000000000000000E+000	0.000000000000000E+000	0.000000000000000E+000	-9.13369e-07	0.000000000000000E+000	0.0308199	0.0308199	0.0000000E+000	0.0000000E+000	0.01415	0.000000000000000E+000	3.92319e-05	3.08807	195836
1	1	0	1	0	0	0	14	7959.26	0.01415	2.95256	0.0141541	2.54157e-05	0.0312929	5.08101e-05	0.0312929	0	-0.31619	5.08101e-05	0.000000000000000E+000	0.000000000000000E+000	0.000000000000000E+000	-9.27386e-07	0.000000000000000E+000	0.0312929	0.0312929	0.0000000E+000	0.0000000E+000	0.01415	0.000000000000000E+000	4.1791e-05	3.26875	208601
1	1	0	1	0	0	0	14	8072.76	0.01415	3.13315	0.0141538	2.50423e-05	0.0317391	5.21678e-05	0.0317391	0	-0.31619	5.21678e-05	0.000000000000000E+000	0.000000000000000E+000	0.000000000000000E+000	-9.40611e-07	0.000000000000000E+000	0.0317391	0.0317391	0.0000000E+000	0.0000000E+000	0.01415	0.000000000000000E+000	4.4346e-05	3.44934	221364
1	1	0	1	0	0	0	14	8221.83	0.01415	3.31389	0.0141536	6.12413e-05	0.0323252	5.40645e-05	0.0323252	0	-0.3164	5.40645e-05	0.000000000000000E+000	0.000000000000000E+000	0.000000000000000E+000	-9.5798e-07	0.000000000000000E+000	0.0323252	0.0323252	0.0000000E+000	0.0000000E+000	0.01415	0.000000000000000E+000	4.69036e-05	3.63029	234137
1	1	0	1	0	0	0	14	22025.1	0.01415	3.4637	0.0141539	0.00471776	0.0865925	0.000239782	0.0865925	0	-0.315045	0.000239782	0.000000000000000E+000	0.000000000000000E+000	0.000000000000000E+000	-2.56623e-06	0.000000000000000E+000	0.0865925	0.0865925	0.0000000E+000	0.0000000E+000	0.01415	0.000000000000000E+000	4.90248e-05	3.77874	244717
1	1	0	1	0	0	0	14	40894	0.01415	3.62457	0.0141535	0.00281511	0.160774	0.00050168	0.160774	0	-0.314396	0.00050168	0.000000000000000E+000	0.000000000000000E+000	0.000000000000000E+000	-4.76466e-06	0.000000000000000E+000	0.160774	0.160774	0.0000000E+000	0.0000000E+000	0.01415	0.000000000000000E+000	5.13004e-05	3.93897	256090
1	1	0	1	0	0	0	14	51414.3	0.01415	3.80552	0.0141531	0.00206197	0.202134	0.000655164	0.202134	0	-0.314072	0.000655164	0.000000000000000E+000	0.000000000000000E+000	0.000000000000000E+000	-5.99038e-06	0.000000000000000E+000	0.202134	0.202134	0.0000000E+000	0.0000000E+000	0.01415	0.000000000000000E+000	5.386e-05	4.11959	268882
1	0	0	0	0	0	1	14	57461.4	-0.01415	3.83855	-0.0141498	-0.00132921	0.210721	0.000746656	-0.00759242	1	-0.290165	0.00071738	2.92764e-05	0.000000000000000E+000	0.000000000000000E+000	-6.24485e-06	0.00759242	0.000000000000000E+000	0.00759242	0.0000000E+000	0.0000000E+000	-0.01415	0.000000000000000E+000	-5.43148e-05	4.12871	271279
1	0	0	0	0	0	1	14	65322.9	-0.01415	3.66012	-0.0141505	-0.00203878	0.179821	0.000862451	-0.0384925	1	-0.287856	0.00071738	0.000145071	0.000000000000000E+000	0.000000000000000E+000	-5.32911e-06	0.0384925	0.000000000000000E+000	0.0384925	0.0000000E+000	0.0000000E+000	-0.01415	0.000000000000000E+000	-5.17926e-05	3.94797	258656
1	0	0	0	0	0	1	14	81015.8	-0.01415	3.47398	-0.01415	-0.00471663	0.118139	0.00108145	-0.100174	1	-0.298064	0.00071738	0.000364074	0.000000000000000E+000	0.000000000000000E+000	-3.50112e-06	0.100174	0.000000000000000E+000	0.100174	0.0000000E+000	0.0000000E+000	-0.01415	0.000000000000000E+000	-4.91566e-05	3.77204	245512
1	0	0	0	0	0	1	14	92700	-0.01415	3.29444	-0.0141496	-0.000309416	0.0722139	0.00123854	-0.146099	1	-0.30209	0.00071738	0.000521159	0.000000000000000E+000	0.000000000000000E+000	-2.14011e-06	0.146099	0.000000000000000E+000	0.146099	0.0000000E+000	0.0000000E+000	-0.01415	0.000000000000000E+000	-4.66149e-05	3.59653	232830
1	0	0	0	0	0	1	14	93465.9	-0.01415	3.11328	-0.0141501	-0.000140192	0.0692034	0.00124821	-0.14911	1	-0.302548	0.00071738	0.000530832	0.000000000000000E+000	0.000000000000000E+000	-2.05089e-06	0.14911	0.000000000000000E+000	0.14911	0.0000000E+000	0.0000000E+000	-0.01415	0.000000000000000E+000	-4.40532e-05	3.41583	220018
1	0	0	0	0	0	1	14	94024.8	-0.01415	2.93235	-0.0141499	-0.000108049	0.0670065	0.00125486	-0.151307	1	-0.302777	0.00071738	0.000537482	0.000000000000000E+000	0.000000000000000E+000	-1.98578e-06	0.151307	0.000000000000000E+000	0.151307	0.0000000E+000	0.0000000E+000	-0.01415	0.000000000000000E+000	-4.14924e-05	3.23513	207235
1	0	0	0	0	0	1	14	94454.6	-0.01415	2.75138	-0.0141496	-8.32322e-05	0.0653171	0.00125967	-0.152996	1	-0.302948	0.00071738	0.000542289	0.000000000000000E+000	0.000000000000000E+000	-1.93572e-06	0.152996	0.000000000000000E+000	0.152996	0.0000000E+000	0.0000000E+000	-0.01415	0.000000000000000E+000	-3.89309e-05	3.05433	194450
1	1	0	1	0	0	2	14	94569.9	0.01415	2.79571	0.0141529	1.77463e-06	0.0648904	0.0012609	1.31678e-05	2	-0.304971	3.62427e-08	0.000000000000000E+000	0.000000000000000E+000	0.000000000000000E+000	-1.92307e-06	0.000000000000000E+000	1.31678e-05	1.31678e-05	0.0000000E+000	0.0000000E+000	0.01415	1	3.95675e-05	3.10068	197536
1	1	0	1	0	0	2	14	94582.8	0.01415	2.97662	0.0141527	3.8897e-06	0.0649412	0.00126105	6.40272e-05	2	-0.304933	1.83612e-07	0.000000000000000E+000	0.000000000000000E+000	0.000000000000000E+000	-1.92458e-06	0.000000000000000E+000	6.40272e-05	6.40272e-05	0.0000000E+000	0.0000000E+000	0.01415	1	4.21274e-05	3.28156	210321
1	1	0	1	0	0	2	14	94606.2	0.01415	3.15738	0.0141531	6.29097e-06	0.0650331	0.00126133	0.000155878	2	-0.304914	4.65955e-07	0.000000000000000E+000	0.000000000000000E+000	0.000000000000000E+000	-1.9273e-06	0.000000000000000E+000	0.000155878	0.000155878	0.0000000E+000	0.0000000E+000	0.01415	1	4.46868e-05	3.4623	223087
1	1	0	1	0	0	2	14	94668.1	0.01415	3.33755	0.0141525	4.51707e-05	0.0652766	0.00126213	0.000399364	2	-0.305391	1.26408e-06	0.000000000000000E+000	0.000000000000000E+000	0.000000000000000E+000	-1.93452e-06	0.000000000000000E+000	0.000399364	0.000399364	0.0000000E+000	0.0000000E+000	0.01415	1	4.72346e-05	3.64294	235828
1	1	0	1	0	0	2	14	109505	0.01415	3.49488	0.0141531	0.00471763	0.123605	0.00146306	0.0587274	2	-0.311096	0.000202195	0.000000000000000E+000	0.000000000000000E+000	0.000000000000000E+000	-3.66311e-06	0.000000000000000E+000	0.0587274	0.0587274	0.0000000E+000	0.0000000E+000	0.01415	1	4.94634e-05	3.80597	246933
1	1	0	1	0	0	2	14	124310	0.01415	3.6722	0.014153	0.00216009	0.181808	0.00167077	0.116931	2	-0.312889	0.000409899	0.000000000000000E+000	0.000000000000000E+000	0.000000000000000E+000	-5.38802e-06	0.000000000000000E+000	0.116931	0.116931	0.0000000E+000	0.0000000E+000	0.01415	1	5.19726e-05	3.98509	259465
1	1	0	1	0	0	2	14	133221	0.01415	3.85202	0.0141531	0.00181233	0.21684	0.00180246	0.151963	2	-0.313576	0.000541592	0.000000000000000E+000	0.000000000000000E+000	0.000000000000000E+000	-6.42621e-06	0.000000000000000E+000	0.151963	0.151963	0.0000000E+000	0.0000000E+000	0.01415	1	5.45179e-05	4.1656	272169
2	1	0	0	0	0	3	14	135191	3.88638	3.88675	0.00415309	3.38981e-05	0.223838	0.00182955	0.158961	2	-0.312622	0.00056868	0.000000000000000E+000	0.000000000000000E+000	0.000000000000000E+000	-6.6336e-06	0.000000000000000E+000	0.158961	0.158961	0.0000000E+000	3.88638	0.0000000E+000	1	1.6142e-05	4.19937	935869
2	1	0	0	0	0	3	14	135731	3.88638	3.88675	0.00273676	2.25341e-05	0.224317	0.00183141	0.15944	2	-0.312546	0.000570542	0.000000000000000E+000	0.000000000000000E+000	0.000000000000000E+000	-6.6478e-06	0.000000000000000E+000	0.15944	0.15944	0.0000000E+000	3.88638	0.0000000E+000	1	1.06371e-05	4.1993	1.4202e+06