Folder: AMIDR/Analyzed Data/266

Note: README (Instructions to get started).md
# Instructions
AMIDR runs on python with Jupyter Notebook. To begin, follow these instructions:

1. Download Anaconda at https://www.anaconda.com/download
2. Open up Anaconda and run Jupyter Notebook, which should open up in your browser
3. Download and extract this repository if you have not done so already
4. Navigate to "User Interface.ipynb" and continue from there

# File and Folder Descriptions
- Analyzed Data: All data analyzed in the paper "AMIDR: A Complete Pulse Method for Measuring Cathode Solid-State Diffusivity".
- Figures: All figures and their construction.
- Fresh Data: Raw data not yet analyzed. Feel free to use this for practice.
- Protocols: BioLogic protocols used for AMIDR testing.
- Batch Analysis.ipynb: One-button notebook for updating analysis.
- Dev Interface.ipynb: Similar to User Interface except used for future development.
- User Interface.ipynb: Where to perfrom AMIDR analysis.
- amidr.py: Backend code for AMIDR analysis. Experienced users can feel free to edit.

File: 266_230530_C08.mpt
EC-Lab ASCII FILE
Nb header lines : 95

Modulo Bat

Run on channel : 8 (SN 55105)
User :
CE vs. WE compliance from -10 V to 10 V
Electrode connection : standard
Potential control : Ewe
Ewe ctrl range : min = -10.00 V, max = 10.00 V
Safety Limits :
	Do not start on E overload
Acquisition started on : 05/30/2023 14:12:58.301
Technique started on : 05/30/2023 14:12:58.301
Loaded Setting File :  C:\Users\OEMS\Documents\EC-Lab\Data\Mitch\Protocols\AMIDR Form.mps
Saved on :
	File : 266_230530_C08.mpr
	Directory : C:\Users\OEMS\Documents\EC-Lab\Data\Mitch\Results\Formation\
	Host : 192.168.1.58
Device : VMP-3e (SN .003109)
Address : USB
EC-Lab for windows v11.43 (software)
Internet server v11.40 (firmware)
Command interpretor v11.40 (firmware)
Electrode material :
Initial state :
Electrolyte :
Comments :
Mass of active material : 2.477 mg
 at x = 0.000
Molecular weight of active material (at x = 0) : 0.001 g/mol
Atomic weight of intercalated ion : 0.001 g/mol
Acquisition started at : xo = 0.000
Number of e- transfered per intercalated ion : 1
for DX = 1, DQ = 66387.312 mA.h
Battery capacity : 0.557 mA.h
Electrode surface area : 0.001 cm²
Characteristic mass : 0.001 g
Volume (V) : 0.001 cm³
Record Ece
Cycle Definition : Charge/Discharge alternance
Ns                  0                   1                   2                   3
ctrl_type           CC                  CC                  CC                  CV
Apply I/C           C / N               C / N               C / N               C / N
current/potential   current             current             current             current
ctrl1_val           60.000              60.000              60.000              0.000
ctrl1_val_unit      µA                  µA                  µA                  V
ctrl1_val_vs        <None>              <None>              <None>              Emeas
ctrl2_val
ctrl2_val_unit
ctrl2_val_vs
ctrl3_val
ctrl3_val_unit
ctrl3_val_vs
N                   20.00               20.00               20.00               20.00
charge/discharge    Charge              Discharge           Charge              Charge
charge/discharge_1  Charge              Charge              Charge              Charge
Apply I/C_1         I                   I                   I                   I
N1                  0.00                0.00                0.00                0.00
ctrl4_val
ctrl4_val_unit
ctrl_seq            0                   0                   0                   0
ctrl_repeat         0                   0                   0                   0
ctrl_trigger        Falling Edge        Falling Edge        Falling Edge        Falling Edge
ctrl_TO_t           0.000               0.000               0.000               0.000
ctrl_TO_t_unit      d                   d                   d                   d
ctrl_Nd             6                   6                   6                   6
ctrl_Na             2                   2                   2                   2
ctrl_corr           0                   0                   0                   0
lim_nb              1                   1                   1                   1
lim1_type           Ewe-Ece             Ewe-Ece             Ewe-Ece             Time
lim1_comp           >                   <                   >                   >
lim1_Q              Q limit             Q limit             Q limit             Q limit
lim1_value          4.200               3.000               4.200               15.000
lim1_value_unit     V                   V                   V                   mn
lim1_action         Next sequence       Next sequence       Next sequence       Next sequence
lim1_seq            1                   2                   3                   4
rec_nb              2                   2                   2                   1
rec1_type           Time                Time                Time                Time
rec1_value          20.000              20.000              20.000              30.000
rec1_value_unit     mn                  mn                  mn                  s
rec2_type           Ewe-Ece             Ewe-Ece             Ewe-Ece             Ewe-Ece
rec2_value          0.010               0.010               0.010               0.010
rec2_value_unit     V                   V                   V                   V
E range min (V)     -10.000             -10.000             -10.000             -10.000
E range max (V)     10.000              10.000              10.000              10.000
I Range             100 µA              100 µA              100 µA              100 µA
I Range min         Unset               Unset               Unset               Unset
I Range max         Unset               Unset               Unset               Unset
I Range init        Unset               Unset               Unset               Unset
auto rest           0                   0                   0                   0
Bandwidth           5                   5                   5                   5

mode	ox/red	error	control changes	Ns changes	counter inc.	Ns	I Range	time/s	control/V/mA	Ewe/V	I/mA	dq/mA.h	(Q-Qo)/mA.h	|Energy|/W.h	Q charge/discharge/mA.h	half cycle	Ece/V	Energy charge/W.h	Energy discharge/W.h	Capacitance charge/µF	Capacitance discharge/µF	x	Q discharge/mA.h	Q charge/mA.h	Capacity/mA.h	Efficiency/%	control/V	control/mA	cycle number	P/W	Ewe-Ece/V	R/Ohm
1	1	0	1	0	0	0	13	0.000000000000000E+000	0.02785	2.6365	0.027683	0.000000000000000E+000	0.000000000000000E+000	0.000000000000000E+000	0.000000000000000E+000	0	-0.316096	0.000000000000000E+000	0.000000000000000E+000	0.000000000000000E+000	0.000000000000000E+000	0.000000000000000E+000	0.000000000000000E+000	0.000000000000000E+000	0.000000000000000E+000	0.0000000E+000	0.0000000E+000	0.02785	0.000000000000000E+000	7.29864e-05	2.9526	95238.9
1	1	0	1	0	0	0	13	4.9388	0.02785	2.77431	0.0278293	3.53763e-06	3.81818e-05	1.03533e-07	3.81818e-05	0	-0.319131	1.03533e-07	0.000000000000000E+000	0.000000000000000E+000	0.000000000000000E+000	-5.75137e-10	0.000000000000000E+000	3.81818e-05	3.81818e-05	0.0000000E+000	0.0000000E+000	0.02785	0.000000000000000E+000	7.72069e-05	3.09344	99690.3
1	1	0	1	0	0	0	13	14.3268	0.02785	2.91503	0.0278293	7.22352e-06	0.000110758	3.10579e-07	0.000110758	0	-0.319112	3.10579e-07	0.000000000000000E+000	0.000000000000000E+000	0.000000000000000E+000	-1.66836e-09	0.000000000000000E+000	0.000110758	0.000110758	0.0000000E+000	0.0000000E+000	0.02785	0.000000000000000E+000	8.1123e-05	3.23414	104747
1	1	0	1	0	0	0	13	37.2452	0.02785	3.05584	0.0278273	2.07172e-05	0.000287928	8.41688e-07	0.000287928	0	-0.319207	8.41688e-07	0.000000000000000E+000	0.000000000000000E+000	0.000000000000000E+000	-4.33709e-09	0.000000000000000E+000	0.000287928	0.000287928	0.0000000E+000	0.0000000E+000	0.02785	0.000000000000000E+000	8.50361e-05	3.37505	109814
1	1	0	1	0	0	0	13	335.381	0.02785	3.19622	0.0278305	0.000527249	0.00259253	8.1334e-06	0.00259253	0	-0.319245	8.1334e-06	0.000000000000000E+000	0.000000000000000E+000	0.000000000000000E+000	-3.90515e-08	0.000000000000000E+000	0.00259253	0.00259253	0.0000000E+000	0.0000000E+000	0.02785	0.000000000000000E+000	8.89526e-05	3.51547	114846
1	1	0	1	0	0	0	13	4015.6	0.02785	3.32798	0.0278172	0.00927613	0.031041	0.00010228	0.031041	0	-0.318558	0.00010228	0.000000000000000E+000	0.000000000000000E+000	0.000000000000000E+000	-4.67574e-07	0.000000000000000E+000	0.031041	0.031041	0.0000000E+000	0.0000000E+000	0.02785	0.000000000000000E+000	9.25749e-05	3.64653	119637
1	1	0	1	0	0	0	13	20815.6	0.02785	3.38207	0.0278312	0.00927614	0.160898	0.000537716	0.160898	0	-0.314952	0.000537716	0.000000000000000E+000	0.000000000000000E+000	0.000000000000000E+000	-2.42362e-06	0.000000000000000E+000	0.160898	0.160898	0.0000000E+000	0.0000000E+000	0.02785	0.000000000000000E+000	9.41269e-05	3.69702	121521
1	1	0	1	0	0	0	13	37615.6	0.02785	3.48492	0.0278413	0.00927933	0.290794	0.000982926	0.290794	0	-0.313082	0.000982926	0.000000000000000E+000	0.000000000000000E+000	0.000000000000000E+000	-4.38026e-06	0.000000000000000E+000	0.290794	0.290794	0.0000000E+000	0.0000000E+000	0.02785	0.000000000000000E+000	9.70247e-05	3.798	125171
1	1	0	1	0	0	0	13	48644.8	0.02785	3.62625	0.0278413	0.00564	0.376082	0.00128558	0.376082	0	-0.312262	0.00128558	0.000000000000000E+000	0.000000000000000E+000	0.000000000000000E+000	-5.66497e-06	0.000000000000000E+000	0.376082	0.376082	0.0000000E+000	0.0000000E+000	0.02785	0.000000000000000E+000	0.00010096	3.93851	130247
1	1	0	1	0	0	0	13	61175.1	0.02785	3.76628	0.0278394	0.00459238	0.472979	0.00164346	0.472979	0	-0.312739	0.00164346	0.000000000000000E+000	0.000000000000000E+000	0.000000000000000E+000	-7.12455e-06	0.000000000000000E+000	0.472979	0.472979	0.0000000E+000	0.0000000E+000	0.02785	0.000000000000000E+000	0.000104851	4.07902	135286
1	1	0	1	0	0	0	13	71567.9	0.02785	3.88168	0.0278223	0.00927456	0.553311	0.00195237	0.553311	0	-0.312357	0.00195237	0.000000000000000E+000	0.000000000000000E+000	0.000000000000000E+000	-8.33458e-06	0.000000000000000E+000	0.553311	0.553311	0.0000000E+000	0.0000000E+000	0.02785	0.000000000000000E+000	0.000107997	4.19404	139517
1	0	0	0	0	0	1	13	81522	-0.02785	3.80987	-0.027878	-0.0033406	0.507324	0.00224988	-0.0615179	1	-0.311098	0.0020127	0.000237182	0.000000000000000E+000	0.000000000000000E+000	-7.64189e-06	0.0615179	0.000000000000000E+000	0.0615179	0.0000000E+000	0.0000000E+000	-0.02785	0.000000000000000E+000	-0.000106211	4.12097	136662
1	0	0	0	0	0	1	13	90421	-0.02785	3.66972	-0.0278729	-0.00851254	0.438427	0.00250651	-0.130416	1	-0.310755	0.0020127	0.000493816	0.000000000000000E+000	0.000000000000000E+000	-6.60407e-06	0.130416	0.000000000000000E+000	0.130416	0.0000000E+000	0.0000000E+000	-0.02785	0.000000000000000E+000	-0.000102286	3.98048	131659
1	0	0	0	0	0	1	13	100334	-0.02785	3.52936	-0.0278703	-0.00498013	0.361681	0.00278328	-0.207161	1	-0.310659	0.0020127	0.000770578	0.000000000000000E+000	0.000000000000000E+000	-5.44805e-06	0.207161	0.000000000000000E+000	0.207161	0.0000000E+000	0.0000000E+000	-0.02785	0.000000000000000E+000	-9.83646e-05	3.84002	126635
1	0	0	0	0	0	1	13	114042	-0.02785	3.38872	-0.0278703	-0.00797605	0.255561	0.00314992	-0.313281	1	-0.310812	0.0020127	0.00113722	0.000000000000000E+000	0.000000000000000E+000	-3.84955e-06	0.313281	0.000000000000000E+000	0.313281	0.0000000E+000	0.0000000E+000	-0.02785	0.000000000000000E+000	-9.44447e-05	3.69953	121589
1	0	0	0	0	0	1	13	125686	-0.02785	3.25063	-0.0278824	-0.0021596	0.165386	0.00345064	-0.403456	1	-0.310678	0.0020127	0.00143794	0.000000000000000E+000	0.000000000000000E+000	-2.49123e-06	0.403456	0.000000000000000E+000	0.403456	0.0000000E+000	0.0000000E+000	-0.02785	0.000000000000000E+000	-9.06354e-05	3.56131	116584
1	0	0	0	0	0	1	13	127569	-0.02785	3.11008	-0.0278773	-0.000557527	0.150806	0.00349723	-0.418036	1	-0.310812	0.0020127	0.00148453	0.000000000000000E+000	0.000000000000000E+000	-2.27162e-06	0.418036	0.000000000000000E+000	0.418036	0.0000000E+000	0.0000000E+000	-0.02785	0.000000000000000E+000	-8.67008e-05	3.42089	111563
1	0	0	0	0	0	1	13	128269	-0.02785	2.96959	-0.0278831	-0.000290561	0.145389	0.00351374	-0.423453	1	-0.310812	0.0020127	0.00150104	0.000000000000000E+000	0.000000000000000E+000	-2.19001e-06	0.423453	0.000000000000000E+000	0.423453	0.0000000E+000	0.0000000E+000	-0.02785	0.000000000000000E+000	-8.28012e-05	3.2804	106502
1	0	0	0	0	0	1	13	128698	-0.02785	2.82896	-0.0278881	-0.000204198	0.142067	0.00352339	-0.426775	1	-0.310831	0.0020127	0.00151069	0.000000000000000E+000	0.000000000000000E+000	-2.13997e-06	0.426775	0.000000000000000E+000	0.426775	0.0000000E+000	0.0000000E+000	-0.02785	0.000000000000000E+000	-7.88945e-05	3.13979	101440
1	0	0	0	0	0	1	13	129024	-0.02785	2.68891	-0.0278748	-0.000156429	0.139539	0.00353037	-0.429303	1	-0.310907	0.0020127	0.00151767	0.000000000000000E+000	0.000000000000000E+000	-2.1019e-06	0.429303	0.000000000000000E+000	0.429303	0.0000000E+000	0.0000000E+000	-0.02785	0.000000000000000E+000	-7.49528e-05	2.99982	96463.8
1	1	0	1	0	0	2	13	129027	0.02785	2.81102	0.0278261	2.11611e-06	0.13956	0.00353042	2.08628e-05	2	-0.311861	5.75014e-08	0.000000000000000E+000	0.000000000000000E+000	0.000000000000000E+000	-2.10221e-06	0.000000000000000E+000	2.08628e-05	2.08628e-05	0.0000000E+000	0.0000000E+000	0.02785	1	7.82196e-05	3.12288	101021
1	1	0	1	0	0	2	13	129031	0.02785	2.95176	0.027821	3.25064e-06	0.139598	0.00353053	5.86882e-05	2	-0.311957	1.66672e-07	0.000000000000000E+000	0.000000000000000E+000	0.000000000000000E+000	-2.10278e-06	0.000000000000000E+000	5.86882e-05	5.86882e-05	0.0000000E+000	0.0000000E+000	0.02785	1	8.21208e-05	3.26372	106098
1	1	0	1	0	0	2	13	129039	0.02785	3.09237	0.0278235	4.88761e-06	0.139655	0.00353071	0.000115574	2	-0.311823	3.38851e-07	0.000000000000000E+000	0.000000000000000E+000	0.000000000000000E+000	-2.10364e-06	0.000000000000000E+000	0.000115574	0.000115574	0.0000000E+000	0.0000000E+000	0.02785	1	8.60405e-05	3.40419	111142
1	1	0	1	0	0	2	13	129053	0.02785	3.23303	0.0278248	1.49132e-05	0.139763	0.00353105	0.000224003	2	-0.31188	6.8318e-07	0.000000000000000E+000	0.000000000000000E+000	0.000000000000000E+000	-2.10527e-06	0.000000000000000E+000	0.000224003	0.000224003	0.0000000E+000	0.0000000E+000	0.02785	1	8.99584e-05	3.54491	116192
1	1	0	1	0	0	2	13	137985	0.02785	3.36057	0.0278178	0.00927291	0.20879	0.003761	0.0692509	2	-0.312262	0.000230635	0.000000000000000E+000	0.000000000000000E+000	0.000000000000000E+000	-3.14503e-06	0.000000000000000E+000	0.0692509	0.0692509	0.0000000E+000	0.0000000E+000	0.02785	1	9.34836e-05	3.67283	120806
1	1	0	1	0	0	2	13	153936	0.02785	3.49675	0.0278261	0.00783429	0.332057	0.00418321	0.192517	2	-0.312109	0.000652847	0.000000000000000E+000	0.000000000000000E+000	0.000000000000000E+000	-5.00181e-06	0.000000000000000E+000	0.192517	0.192517	0.0000000E+000	0.0000000E+000	0.02785	1	9.73007e-05	3.80886	125664
1	1	0	1	0	0	2	13	163738	0.02785	3.6377	0.0278477	0.00592004	0.407839	0.00445329	0.268299	2	-0.311747	0.000922926	0.000000000000000E+000	0.000000000000000E+000	0.000000000000000E+000	-6.14332e-06	0.000000000000000E+000	0.268299	0.268299	0.0000000E+000	0.0000000E+000	0.02785	1	0.000101301	3.94944	130628
1	1	0	1	0	0	2	13	175503	0.02785	3.77842	0.027849	0.00366622	0.49882	0.00478987	0.359281	2	-0.311499	0.0012595	0.000000000000000E+000	0.000000000000000E+000	0.000000000000000E+000	-7.51379e-06	0.000000000000000E+000	0.359281	0.359281	0.0000000E+000	0.0000000E+000	0.02785	1	0.000105225	4.08992	135675
1	1	0	1	0	0	2	13	186087	0.02785	3.8883	0.0278502	0.0092821	0.580687	0.00510562	0.441148	2	-0.311556	0.00157525	0.000000000000000E+000	0.000000000000000E+000	0.000000000000000E+000	-8.74696e-06	0.000000000000000E+000	0.441148	0.441148	0.0000000E+000	0.0000000E+000	0.02785	1	0.00010829	4.19986	139615
2	1	0	0	0	0	3	13	186454	3.88851	3.88832	0.0209955	0.000178705	0.58313	0.00511512	0.443591	2	-0.311403	0.00158475	0.000000000000000E+000	0.000000000000000E+000	0.000000000000000E+000	-8.78376e-06	0.000000000000000E+000	0.443591	0.443591	0.0000000E+000	3.88851	0.0000000E+000	1	8.16375e-05	4.19973	185198
2	1	0	0	0	0	3	13	186874	3.88851	3.88811	0.0174531	0.000147094	0.585383	0.00512388	0.445844	2	-0.311308	0.00159351	0.000000000000000E+000	0.000000000000000E+000	0.000000000000000E+000	-8.8177e-06	0.000000000000000E+000	0.445844	0.445844	0.0000000E+000	3.88851	0.0000000E+000	1	6.78598e-05	4.19942	222775
2	1	0	0	0	0	3	13	187024	3.88851	3.88808	0.0162929	0.000138517	0.586092	0.00512664	0.446553	2	-0.311365	0.00159627	0.000000000000000E+000	0.000000000000000E+000	0.000000000000000E+000	-8.82838e-06	0.000000000000000E+000	0.446553	0.446553	0.0000000E+000	3.88851	0.0000000E+000	1	6.3348e-05	4.19944	238637