Folder: AMIDR/Fresh Data/269

Note: README (Instructions to get started).md
# Instructions
AMIDR runs on python with Jupyter Notebook. To begin, follow these instructions:

1. Download Anaconda at https://www.anaconda.com/download
2. Open up Anaconda and run Jupyter Notebook, which should open up in your browser
3. Download and extract this repository if you have not done so already
4. Navigate to "User Interface.ipynb" and continue from there

# File and Folder Descriptions
- Analyzed Data: All data analyzed in the paper "AMIDR: A Complete Pulse Method for Measuring Cathode Solid-State Diffusivity".
- Figures: All figures and their construction.
- Fresh Data: Raw data not yet analyzed. Feel free to use this for practice.
- Protocols: BioLogic protocols used for AMIDR testing.
- Batch Analysis.ipynb: One-button notebook for updating analysis.
- Dev Interface.ipynb: Similar to User Interface except used for future development.
- User Interface.ipynb: Where to perfrom AMIDR analysis.
- amidr.py: Backend code for AMIDR analysis. Experienced users can feel free to edit.

File: 269_230530_C12.mpt
EC-Lab ASCII FILE
Nb header lines : 95

Modulo Bat

Run on channel : 12 (SN 55085)
User :
CE vs. WE compliance from -10 V to 10 V
Electrode connection : standard
Potential control : Ewe
Ewe ctrl range : min = -10.00 V, max = 10.00 V
Safety Limits :
	Do not start on E overload
Acquisition started on : 05/30/2023 14:13:48.985
Technique started on : 05/30/2023 14:13:48.985
Loaded Setting File :  C:\Users\OEMS\Documents\EC-Lab\Data\Mitch\Protocols\AMIDR Form.mps
Saved on :
	File : 269_230530_C12.mpr
	Directory : C:\Users\OEMS\Documents\EC-Lab\Data\Mitch\Results\Formation\
	Host : 192.168.1.58
Device : VMP-3e (SN .003109)
Address : USB
EC-Lab for windows v11.43 (software)
Internet server v11.40 (firmware)
Command interpretor v11.40 (firmware)
Electrode material :
Initial state :
Electrolyte :
Comments :
Mass of active material : 2.367 mg
 at x = 0.000
Molecular weight of active material (at x = 0) : 0.001 g/mol
Atomic weight of intercalated ion : 0.001 g/mol
Acquisition started at : xo = 0.000
Number of e- transfered per intercalated ion : 1
for DX = 1, DQ = 63439.150 mA.h
Battery capacity : 0.533 mA.h
Electrode surface area : 0.001 cm²
Characteristic mass : 0.001 g
Volume (V) : 0.001 cm³
Record Ece
Cycle Definition : Charge/Discharge alternance
Ns                  0                   1                   2                   3
ctrl_type           CC                  CC                  CC                  CV
Apply I/C           C / N               C / N               C / N               C / N
current/potential   current             current             current             current
ctrl1_val           60.000              60.000              60.000              0.000
ctrl1_val_unit      µA                  µA                  µA                  V
ctrl1_val_vs        <None>              <None>              <None>              Emeas
ctrl2_val
ctrl2_val_unit
ctrl2_val_vs
ctrl3_val
ctrl3_val_unit
ctrl3_val_vs
N                   20.00               20.00               20.00               20.00
charge/discharge    Charge              Discharge           Charge              Charge
charge/discharge_1  Charge              Charge              Charge              Charge
Apply I/C_1         I                   I                   I                   I
N1                  0.00                0.00                0.00                0.00
ctrl4_val
ctrl4_val_unit
ctrl_seq            0                   0                   0                   0
ctrl_repeat         0                   0                   0                   0
ctrl_trigger        Falling Edge        Falling Edge        Falling Edge        Falling Edge
ctrl_TO_t           0.000               0.000               0.000               0.000
ctrl_TO_t_unit      d                   d                   d                   d
ctrl_Nd             6                   6                   6                   6
ctrl_Na             2                   2                   2                   2
ctrl_corr           0                   0                   0                   0
lim_nb              1                   1                   1                   1
lim1_type           Ewe-Ece             Ewe-Ece             Ewe-Ece             Time
lim1_comp           >                   <                   >                   >
lim1_Q              Q limit             Q limit             Q limit             Q limit
lim1_value          4.200               3.000               4.200               15.000
lim1_value_unit     V                   V                   V                   mn
lim1_action         Next sequence       Next sequence       Next sequence       Next sequence
lim1_seq            1                   2                   3                   4
rec_nb              2                   2                   2                   1
rec1_type           Time                Time                Time                Time
rec1_value          20.000              20.000              20.000              30.000
rec1_value_unit     mn                  mn                  mn                  s
rec2_type           Ewe-Ece             Ewe-Ece             Ewe-Ece             Ewe-Ece
rec2_value          0.010               0.010               0.010               0.010
rec2_value_unit     V                   V                   V                   V
E range min (V)     -10.000             -10.000             -10.000             -10.000
E range max (V)     10.000              10.000              10.000              10.000
I Range             100 µA              100 µA              100 µA              100 µA
I Range min         Unset               Unset               Unset               Unset
I Range max         Unset               Unset               Unset               Unset
I Range init        Unset               Unset               Unset               Unset
auto rest           0                   0                   0                   0
Bandwidth           5                   5                   5                   5

mode	ox/red	error	control changes	Ns changes	counter inc.	Ns	I Range	time/s	control/V/mA	Ewe/V	I/mA	dq/mA.h	(Q-Qo)/mA.h	|Energy|/W.h	Q charge/discharge/mA.h	half cycle	Ece/V	Energy charge/W.h	Energy discharge/W.h	Capacitance charge/µF	Capacitance discharge/µF	x	Q discharge/mA.h	Q charge/mA.h	Capacity/mA.h	Efficiency/%	control/V	control/mA	cycle number	P/W	Ewe-Ece/V	R/Ohm
1	1	0	0	0	0	0	13	0.000000000000000E+000	0.02665	2.64943	0.0264809	0.000000000000000E+000	0.000000000000000E+000	0.000000000000000E+000	0.000000000000000E+000	0	-0.316659	0.000000000000000E+000	0.000000000000000E+000	0.000000000000000E+000	0.000000000000000E+000	0.000000000000000E+000	0.000000000000000E+000	0.000000000000000E+000	0.000000000000000E+000	0.0000000E+000	0.0000000E+000	0.02665	0.000000000000000E+000	7.01591e-05	2.96608	100050
1	1	0	0	0	0	0	13	4.7684	0.02665	2.78607	0.026624	3.34113e-06	3.52646e-05	9.60757e-08	3.52646e-05	0	-0.320605	9.60757e-08	0.000000000000000E+000	0.000000000000000E+000	0.000000000000000E+000	-5.55881e-10	0.000000000000000E+000	3.52646e-05	3.52646e-05	0.0000000E+000	0.0000000E+000	0.02665	0.000000000000000E+000	7.41765e-05	3.10668	104645
1	1	0	0	0	0	0	13	14.389	0.02665	2.92653	0.0266259	7.32266e-06	0.00010641	2.99922e-07	0.00010641	0	-0.320567	2.99922e-07	0.000000000000000E+000	0.000000000000000E+000	0.000000000000000E+000	-1.67736e-09	0.000000000000000E+000	0.00010641	0.00010641	0.0000000E+000	0.0000000E+000	0.02665	0.000000000000000E+000	7.79214e-05	3.24709	109913
1	1	0	0	0	0	0	13	41.3972	0.02665	3.06669	0.0266202	2.60484e-05	0.000306132	9.01355e-07	0.000306132	0	-0.320948	9.01355e-07	0.000000000000000E+000	0.000000000000000E+000	0.000000000000000E+000	-4.82559e-09	0.000000000000000E+000	0.000306132	0.000306132	0.0000000E+000	0.0000000E+000	0.02665	0.000000000000000E+000	8.16359e-05	3.38764	115202
1	1	0	0	0	0	0	13	692.649	0.02665	3.20634	0.0266221	0.000615605	0.00512187	1.61666e-05	0.00512187	0	-0.321464	1.61666e-05	0.000000000000000E+000	0.000000000000000E+000	0.000000000000000E+000	-8.07367e-08	0.000000000000000E+000	0.00512187	0.00512187	0.0000000E+000	0.0000000E+000	0.02665	0.000000000000000E+000	8.53595e-05	3.5278	120439
1	1	0	0	0	0	0	13	6433.38	0.02665	3.3358	0.0266202	0.00887344	0.0475715	0.000156681	0.0475715	0	-0.318295	0.000156681	0.000000000000000E+000	0.000000000000000E+000	0.000000000000000E+000	-7.49877e-07	0.000000000000000E+000	0.0475715	0.0475715	0.0000000E+000	0.0000000E+000	0.02665	0.000000000000000E+000	8.87995e-05	3.65409	125311
1	1	0	0	0	0	0	13	23233.4	0.02665	3.38584	0.0266157	0.00887429	0.171789	0.00057398	0.171789	0	-0.31589	0.00057398	0.000000000000000E+000	0.000000000000000E+000	0.000000000000000E+000	-2.70794e-06	0.000000000000000E+000	0.171789	0.171789	0.0000000E+000	0.0000000E+000	0.02665	0.000000000000000E+000	9.01168e-05	3.70173	127212
1	1	0	0	0	0	0	13	40033.4	0.02665	3.48346	0.0266259	0.00887592	0.296045	0.000999932	0.296045	0	-0.314592	0.000999932	0.000000000000000E+000	0.000000000000000E+000	0.000000000000000E+000	-4.6666e-06	0.000000000000000E+000	0.296045	0.296045	0.0000000E+000	0.0000000E+000	0.02665	0.000000000000000E+000	9.27504e-05	3.79805	130830
1	1	0	0	0	0	0	13	50975	0.02665	3.62471	0.0266202	0.00539286	0.376977	0.001287	0.376977	0	-0.313752	0.001287	0.000000000000000E+000	0.000000000000000E+000	0.000000000000000E+000	-5.94234e-06	0.000000000000000E+000	0.376977	0.376977	0.0000000E+000	0.0000000E+000	0.02665	0.000000000000000E+000	9.64906e-05	3.93847	136164
1	1	0	0	0	0	0	13	63408.5	0.02665	3.76528	0.0266132	0.00423377	0.468941	0.0016265	0.468941	0	-0.313275	0.0016265	0.000000000000000E+000	0.000000000000000E+000	0.000000000000000E+000	-7.39198e-06	0.000000000000000E+000	0.468941	0.468941	0.0000000E+000	0.0000000E+000	0.02665	0.000000000000000E+000	0.000100206	4.07855	141482
1	1	0	0	0	0	0	13	73677.4	0.02665	3.8808	0.0266145	0.00887205	0.544858	0.00191838	0.544858	0	-0.313141	0.00191838	0.000000000000000E+000	0.000000000000000E+000	0.000000000000000E+000	-8.58867e-06	0.000000000000000E+000	0.544858	0.544858	0.0000000E+000	0.0000000E+000	0.02665	0.000000000000000E+000	0.000103285	4.19394	145815
1	0	0	1	0	0	1	13	83930.9	-0.02665	3.80971	-0.0266929	-0.00311199	0.500065	0.00221176	-0.060381	1	-0.31108	0.00197891	0.000232847	0.000000000000000E+000	0.000000000000000E+000	-7.88259e-06	0.060381	0.000000000000000E+000	0.060381	0.0000000E+000	0.0000000E+000	-0.02665	0.000000000000000E+000	-0.000101692	4.12079	142724
1	0	0	1	0	0	1	13	93215.5	-0.02665	3.66714	-0.026682	-0.00810399	0.431247	0.00246795	-0.129199	1	-0.310851	0.00197891	0.000489032	0.000000000000000E+000	0.000000000000000E+000	-6.7978e-06	0.129199	0.000000000000000E+000	0.129199	0.0000000E+000	0.0000000E+000	-0.02665	0.000000000000000E+000	-9.78468e-05	3.97799	137438
1	0	0	1	0	0	1	13	102722	-0.02665	3.52709	-0.0266789	-0.00478534	0.360789	0.00272183	-0.199657	1	-0.310679	0.00197891	0.000742914	0.000000000000000E+000	0.000000000000000E+000	-5.68716e-06	0.199657	0.000000000000000E+000	0.199657	0.0000000E+000	0.0000000E+000	-0.02665	0.000000000000000E+000	-9.40987e-05	3.83777	132205
1	0	0	1	0	0	1	13	116273	-0.02665	3.38671	-0.0267018	-0.00730774	0.260342	0.00306873	-0.300104	1	-0.310736	0.00197891	0.00108981	0.000000000000000E+000	0.000000000000000E+000	-4.1038e-06	0.300104	0.000000000000000E+000	0.300104	0.0000000E+000	0.0000000E+000	-0.02665	0.000000000000000E+000	-9.04312e-05	3.69745	126835
1	0	0	1	0	0	1	13	127207	-0.02665	3.24775	-0.0266929	-0.00178693	0.179279	0.00333898	-0.381167	1	-0.310927	0.00197891	0.00136006	0.000000000000000E+000	0.000000000000000E+000	-2.826e-06	0.381167	0.000000000000000E+000	0.381167	0.0000000E+000	0.0000000E+000	-0.02665	0.000000000000000E+000	-8.66918e-05	3.55868	121671
1	0	0	1	0	0	1	13	128828	-0.02665	3.10742	-0.0266935	-0.000481404	0.167267	0.00337733	-0.393179	1	-0.310985	0.00197891	0.00139841	0.000000000000000E+000	0.000000000000000E+000	-2.63665e-06	0.393179	0.000000000000000E+000	0.393179	0.0000000E+000	0.0000000E+000	-0.02665	0.000000000000000E+000	-8.29478e-05	3.4184	116411
1	0	0	1	0	0	1	13	129488	-0.02665	2.96695	-0.0266859	-0.00027552	0.162369	0.00339223	-0.398076	1	-0.311175	0.00197891	0.00141332	0.000000000000000E+000	0.000000000000000E+000	-2.55945e-06	0.398076	0.000000000000000E+000	0.398076	0.0000000E+000	0.0000000E+000	-0.02665	0.000000000000000E+000	-7.91755e-05	3.27812	111180
1	0	0	1	0	0	1	13	129919	-0.02665	2.8269	-0.0266979	-0.000198161	0.159171	0.00340151	-0.401275	1	-0.310985	0.00197891	0.0014226	0.000000000000000E+000	0.000000000000000E+000	-2.50903e-06	0.401275	0.000000000000000E+000	0.401275	0.0000000E+000	0.0000000E+000	-0.02665	0.000000000000000E+000	-7.54723e-05	3.13788	105884
1	0	0	1	0	0	1	13	130248	-0.02665	2.6887	-0.026691	-0.00012811	0.156736	0.00340823	-0.40371	1	-0.311099	0.00197891	0.00142932	0.000000000000000E+000	0.000000000000000E+000	-2.47065e-06	0.40371	0.000000000000000E+000	0.40371	0.0000000E+000	0.0000000E+000	-0.02665	0.000000000000000E+000	-7.17639e-05	2.9998	100734
1	1	0	0	0	0	2	13	130250	0.02665	2.80852	0.0266202	2.03452e-06	0.156755	0.00340829	1.94165e-05	2	-0.312492	5.34732e-08	0.000000000000000E+000	0.000000000000000E+000	0.000000000000000E+000	-2.47096e-06	0.000000000000000E+000	1.94165e-05	1.94165e-05	0.0000000E+000	0.0000000E+000	0.02665	1	7.47634e-05	3.12101	105503
1	1	0	0	0	0	2	13	130255	0.02665	2.9489	0.0266189	3.11683e-06	0.156791	0.00340839	5.5025e-05	2	-0.312626	1.5616e-07	0.000000000000000E+000	0.000000000000000E+000	0.000000000000000E+000	-2.47152e-06	0.000000000000000E+000	5.5025e-05	5.5025e-05	0.0000000E+000	0.0000000E+000	0.02665	1	7.84965e-05	3.26152	110782
1	1	0	0	0	0	2	13	130263	0.02665	3.08933	0.0266183	4.70344e-06	0.156845	0.00340855	0.000109465	2	-0.312607	3.20785e-07	0.000000000000000E+000	0.000000000000000E+000	0.000000000000000E+000	-2.47238e-06	0.000000000000000E+000	0.000109465	0.000109465	0.0000000E+000	0.0000000E+000	0.02665	1	8.22326e-05	3.40194	116060
1	1	0	0	0	0	2	13	130276	0.02665	3.22957	0.0266113	1.25754e-05	0.156945	0.00340887	0.000209044	2	-0.312722	6.36536e-07	0.000000000000000E+000	0.000000000000000E+000	0.000000000000000E+000	-2.47395e-06	0.000000000000000E+000	0.000209044	0.000209044	0.0000000E+000	0.0000000E+000	0.02665	1	8.5943e-05	3.54229	121361
1	1	0	0	0	0	2	13	138431	0.02665	3.35794	0.0266157	0.00887053	0.217228	0.00360969	0.0604916	2	-0.313218	0.000201456	0.000000000000000E+000	0.000000000000000E+000	0.000000000000000E+000	-3.42419e-06	0.000000000000000E+000	0.0604916	0.0604916	0.0000000E+000	0.0000000E+000	0.02665	1	8.9374e-05	3.67116	126164
1	1	0	0	0	0	2	13	154322	0.02665	3.49228	0.0266253	0.00755203	0.334701	0.00401154	0.177965	2	-0.313275	0.000603307	0.000000000000000E+000	0.000000000000000E+000	0.000000000000000E+000	-5.27594e-06	0.000000000000000E+000	0.177965	0.177965	0.0000000E+000	0.0000000E+000	0.02665	1	9.29829e-05	3.80556	131164
1	1	0	0	0	0	2	13	163880	0.02665	3.63286	0.0266304	0.00535235	0.405398	0.00426311	0.248662	2	-0.312874	0.000854873	0.000000000000000E+000	0.000000000000000E+000	0.000000000000000E+000	-6.39034e-06	0.000000000000000E+000	0.248662	0.248662	0.0000000E+000	0.0000000E+000	0.02665	1	9.67445e-05	3.94574	136418
1	1	0	0	0	0	2	13	175610	0.02665	3.77343	0.0266361	0.00349565	0.492171	0.00458377	0.335435	2	-0.312588	0.00117554	0.000000000000000E+000	0.000000000000000E+000	0.000000000000000E+000	-7.75816e-06	0.000000000000000E+000	0.335435	0.335435	0.0000000E+000	0.0000000E+000	0.02665	1	0.000100509	4.08602	141666
1	1	0	0	0	0	2	13	185888	0.02665	3.88588	0.0266437	0.00887892	0.568218	0.00487681	0.411482	2	-0.312473	0.00146858	0.000000000000000E+000	0.000000000000000E+000	0.000000000000000E+000	-8.9569e-06	0.000000000000000E+000	0.411482	0.411482	0.0000000E+000	0.0000000E+000	0.02665	1	0.000103534	4.19835	145846
2	1	0	1	0	0	3	13	186682	3.88747	3.8876	0.021179	0.000181697	0.573875	0.0048988	0.417139	2	-0.312359	0.00149057	0.000000000000000E+000	0.000000000000000E+000	0.000000000000000E+000	-9.04607e-06	0.000000000000000E+000	0.417139	0.417139	0.0000000E+000	3.88747	0.0000000E+000	1	8.23353e-05	4.19996	183559
2	1	0	1	0	0	3	13	187102	3.88747	3.88767	0.0171957	0.000146519	0.576134	0.00490758	0.419398	2	-0.312225	0.00149935	0.000000000000000E+000	0.000000000000000E+000	0.000000000000000E+000	-9.08168e-06	0.000000000000000E+000	0.419398	0.419398	0.0000000E+000	3.88747	0.0000000E+000	1	6.68512e-05	4.1999	226084
2	1	0	1	0	0	3	13	187252	3.88747	3.88763	0.0165838	0.000136391	0.576837	0.00491032	0.420102	2	-0.312283	0.00150208	0.000000000000000E+000	0.000000000000000E+000	0.000000000000000E+000	-9.09277e-06	0.000000000000000E+000	0.420102	0.420102	0.0000000E+000	3.88747	0.0000000E+000	1	6.44716e-05	4.19992	234424