Folder: AMIDR/Fresh Data/272

Note: README (Instructions to get started).md
# Instructions
AMIDR runs on python with Jupyter Notebook. To begin, follow these instructions:

1. Download Anaconda at https://www.anaconda.com/download
2. Open up Anaconda and run Jupyter Notebook, which should open up in your browser
3. Download and extract this repository if you have not done so already
4. Navigate to "User Interface.ipynb" and continue from there

# File and Folder Descriptions
- Analyzed Data: All data analyzed in the paper "AMIDR: A Complete Pulse Method for Measuring Cathode Solid-State Diffusivity".
- Figures: All figures and their construction.
- Fresh Data: Raw data not yet analyzed. Feel free to use this for practice.
- Protocols: BioLogic protocols used for AMIDR testing.
- Batch Analysis.ipynb: One-button notebook for updating analysis.
- Dev Interface.ipynb: Similar to User Interface except used for future development.
- User Interface.ipynb: Where to perfrom AMIDR analysis.
- amidr.py: Backend code for AMIDR analysis. Experienced users can feel free to edit.

File: 272_230607_C06.mpt
EC-Lab ASCII FILE
Nb header lines : 95

Modulo Bat

Run on channel : 6 (SN 55238)
User :
CE vs. WE compliance from -10 V to 10 V
Electrode connection : standard
Potential control : Ewe
Ewe ctrl range : min = -10.00 V, max = 10.00 V
Safety Limits :
	Do not start on E overload
Acquisition started on : 06/07/2023 17:15:45.677
Technique started on : 06/07/2023 17:15:45.677
Loaded Setting File :  C:\Users\OEMS\Documents\EC-Lab\Data\Mitch\Protocols\AMIDR Form.mps
Saved on :
	File : 272_230607_C06.mpr
	Directory : C:\Users\OEMS\Documents\EC-Lab\Data\Mitch\Results\Formation\
	Host : 192.168.1.58
Device : VMP-3e (SN .003109)
Address : USB
EC-Lab for windows v11.43 (software)
Internet server v11.40 (firmware)
Command interpretor v11.40 (firmware)
Electrode material :
Initial state :
Electrolyte :
Comments :
Mass of active material : 1.754 mg
 at x = 0.000
Molecular weight of active material (at x = 0) : 0.001 g/mol
Atomic weight of intercalated ion : 0.001 g/mol
Acquisition started at : xo = 0.000
Number of e- transfered per intercalated ion : 1
for DX = 1, DQ = 47009.827 mA.h
Battery capacity : 0.395 mA.h
Electrode surface area : 0.001 cm²
Characteristic mass : 0.001 g
Volume (V) : 0.001 cm³
Record Ece
Cycle Definition : Charge/Discharge alternance
Ns                  0                   1                   2                   3
ctrl_type           CC                  CC                  CC                  CV
Apply I/C           C / N               C / N               C / N               C / N
current/potential   current             current             current             current
ctrl1_val           60.000              60.000              60.000              0.000
ctrl1_val_unit      µA                  µA                  µA                  V
ctrl1_val_vs        <None>              <None>              <None>              Emeas
ctrl2_val
ctrl2_val_unit
ctrl2_val_vs
ctrl3_val
ctrl3_val_unit
ctrl3_val_vs
N                   20.00               20.00               20.00               20.00
charge/discharge    Charge              Discharge           Charge              Charge
charge/discharge_1  Charge              Charge              Charge              Charge
Apply I/C_1         I                   I                   I                   I
N1                  0.00                0.00                0.00                0.00
ctrl4_val
ctrl4_val_unit
ctrl_seq            0                   0                   0                   0
ctrl_repeat         0                   0                   0                   0
ctrl_trigger        Falling Edge        Falling Edge        Falling Edge        Falling Edge
ctrl_TO_t           0.000               0.000               0.000               0.000
ctrl_TO_t_unit      d                   d                   d                   d
ctrl_Nd             6                   6                   6                   6
ctrl_Na             2                   2                   2                   2
ctrl_corr           0                   0                   0                   0
lim_nb              1                   1                   1                   1
lim1_type           Ewe-Ece             Ewe-Ece             Ewe-Ece             Time
lim1_comp           >                   <                   >                   >
lim1_Q              Q limit             Q limit             Q limit             Q limit
lim1_value          4.200               3.000               4.200               15.000
lim1_value_unit     V                   V                   V                   mn
lim1_action         Next sequence       Next sequence       Next sequence       Next sequence
lim1_seq            1                   2                   3                   4
rec_nb              2                   2                   2                   1
rec1_type           Time                Time                Time                Time
rec1_value          20.000              20.000              20.000              30.000
rec1_value_unit     mn                  mn                  mn                  s
rec2_type           Ewe-Ece             Ewe-Ece             Ewe-Ece             Ewe-Ece
rec2_value          0.010               0.010               0.010               0.010
rec2_value_unit     V                   V                   V                   V
E range min (V)     -10.000             -10.000             -10.000             -10.000
E range max (V)     10.000              10.000              10.000              10.000
I Range             10 µA               10 µA               10 µA               10 µA
I Range min         Unset               Unset               Unset               Unset
I Range max         Unset               Unset               Unset               Unset
I Range init        Unset               Unset               Unset               Unset
auto rest           0                   0                   0                   0
Bandwidth           5                   5                   5                   5

mode	ox/red	error	control changes	Ns changes	counter inc.	Ns	I Range	time/s	control/V/mA	Ewe/V	I/mA	dq/mA.h	(Q-Qo)/mA.h	|Energy|/W.h	Q charge/discharge/mA.h	half cycle	Ece/V	Energy charge/W.h	Energy discharge/W.h	Capacitance charge/µF	Capacitance discharge/µF	x	Q discharge/mA.h	Q charge/mA.h	Capacity/mA.h	Efficiency/%	control/V	control/mA	cycle number	P/W	Ewe-Ece/V	R/Ohm
1	1	0	0	0	0	0	14	0.000000000000000E+000	0.01975	2.70378	0.0196195	0.000000000000000E+000	0.000000000000000E+000	0.000000000000000E+000	0.000000000000000E+000	0	-0.310497	0.000000000000000E+000	0.000000000000000E+000	0.000000000000000E+000	0.000000000000000E+000	0.000000000000000E+000	0.000000000000000E+000	0.000000000000000E+000	0.000000000000000E+000	0.0000000E+000	0.0000000E+000	0.01975	0.000000000000000E+000	5.30467e-05	3.01428	137811
1	1	0	0	0	0	0	14	3.6884	0.01975	2.83209	0.0197536	1.90727e-06	2.02382e-05	5.61145e-08	2.02382e-05	0	-0.313232	5.61145e-08	0.000000000000000E+000	0.000000000000000E+000	0.000000000000000E+000	-4.30509e-10	0.000000000000000E+000	2.02382e-05	2.02382e-05	0.0000000E+000	0.0000000E+000	0.01975	0.000000000000000E+000	5.59442e-05	3.14533	143371
1	1	0	0	0	0	0	14	10.1212	0.01975	2.96275	0.0197534	3.7498e-06	5.55349e-05	1.5865e-07	5.55349e-05	0	-0.313365	1.5865e-07	0.000000000000000E+000	0.000000000000000E+000	0.000000000000000E+000	-1.18135e-09	0.000000000000000E+000	5.55349e-05	5.55349e-05	0.0000000E+000	0.0000000E+000	0.01975	0.000000000000000E+000	5.85244e-05	3.27611	149986
1	1	0	0	0	0	0	14	29.4848	0.01975	3.09305	0.0197531	1.62831e-05	0.000161782	4.82042e-07	0.000161782	0	-0.313613	4.82042e-07	0.000000000000000E+000	0.000000000000000E+000	0.000000000000000E+000	-3.44146e-09	0.000000000000000E+000	0.000161782	0.000161782	0.0000000E+000	0.0000000E+000	0.01975	0.000000000000000E+000	6.10973e-05	3.40667	156586
1	1	0	0	0	0	0	14	483.205	0.01975	3.223	0.0197531	0.000481474	0.00265133	8.42249e-06	0.00265133	0	-0.314338	8.42249e-06	0.000000000000000E+000	0.000000000000000E+000	0.000000000000000E+000	-5.63995e-08	0.000000000000000E+000	0.00265133	0.00265133	0.0000000E+000	0.0000000E+000	0.01975	0.000000000000000E+000	6.36641e-05	3.53734	163164
1	1	0	0	0	0	0	14	9504.79	0.01975	3.33014	0.0197529	0.0065844	0.052153	0.000172151	0.052153	0	-0.313098	0.000172151	0.000000000000000E+000	0.000000000000000E+000	0.000000000000000E+000	-1.10941e-06	0.000000000000000E+000	0.052153	0.052153	0.0000000E+000	0.0000000E+000	0.01975	0.000000000000000E+000	6.57798e-05	3.64324	168590
1	1	0	0	0	0	0	14	25104.8	0.01975	3.4145	0.019753	0.00658425	0.137749	0.000460304	0.137749	0	-0.312621	0.000460304	0.000000000000000E+000	0.000000000000000E+000	0.000000000000000E+000	-2.93022e-06	0.000000000000000E+000	0.137749	0.137749	0.0000000E+000	0.0000000E+000	0.01975	0.000000000000000E+000	6.74466e-05	3.72712	172860
1	1	0	0	0	0	0	14	39445.3	0.01975	3.52853	0.0197527	0.00427914	0.216433	0.000732862	0.216433	0	-0.31264	0.000732862	0.000000000000000E+000	0.000000000000000E+000	0.000000000000000E+000	-4.60399e-06	0.000000000000000E+000	0.216433	0.216433	0.0000000E+000	0.0000000E+000	0.01975	0.000000000000000E+000	6.96982e-05	3.84117	178635
1	1	0	0	0	0	0	14	47963.5	0.01975	3.6589	0.0197523	0.00372877	0.263171	0.000900787	0.263171	0	-0.312583	0.000900787	0.000000000000000E+000	0.000000000000000E+000	0.000000000000000E+000	-5.59821e-06	0.000000000000000E+000	0.263171	0.263171	0.0000000E+000	0.0000000E+000	0.01975	0.000000000000000E+000	7.22716e-05	3.97148	185239
1	1	0	0	0	0	0	14	56718.7	0.01975	3.78932	0.019753	0.00340612	0.311208	0.0010796	0.311208	0	-0.312488	0.0010796	0.000000000000000E+000	0.000000000000000E+000	0.000000000000000E+000	-6.62007e-06	0.000000000000000E+000	0.311208	0.311208	0.0000000E+000	0.0000000E+000	0.01975	0.000000000000000E+000	7.48504e-05	4.1018	191835
1	0	0	1	0	0	1	14	63748.3	-0.01975	3.87765	-0.0197509	-0.000631348	0.348516	0.00122783	-0.000631348	1	-0.310484	0.00122538	2.44936e-06	0.000000000000000E+000	0.000000000000000E+000	-7.41367e-06	0.000631348	0.000000000000000E+000	0.000631348	0.0000000E+000	0.0000000E+000	-0.01975	0.000000000000000E+000	-7.65872e-05	4.18814	196328
1	0	0	1	0	0	1	14	68916.3	-0.01975	3.74761	-0.0197506	-0.0023271	0.320162	0.00133595	-0.0289846	1	-0.310141	0.00122538	0.00011057	0.000000000000000E+000	0.000000000000000E+000	-6.81054e-06	0.0289846	0.000000000000000E+000	0.0289846	0.0000000E+000	0.0000000E+000	-0.01975	0.000000000000000E+000	-7.40176e-05	4.05776	189747
1	0	0	1	0	0	1	14	75343.8	-0.01975	3.6174	-0.0197507	-0.00267386	0.284899	0.00146578	-0.0642478	1	-0.309969	0.00122538	0.000240394	0.000000000000000E+000	0.000000000000000E+000	-6.06042e-06	0.0642478	0.000000000000000E+000	0.0642478	0.0000000E+000	0.0000000E+000	-0.01975	0.000000000000000E+000	-7.14463e-05	3.92737	183153
1	0	0	1	0	0	1	14	82479	-0.01975	3.48717	-0.0197506	-0.00411953	0.245755	0.00160463	-0.103392	1	-0.309912	0.00122538	0.000379249	0.000000000000000E+000	0.000000000000000E+000	-5.22773e-06	0.103392	0.000000000000000E+000	0.103392	0.0000000E+000	0.0000000E+000	-0.01975	0.000000000000000E+000	-6.88737e-05	3.79708	176560
1	0	0	1	0	0	1	14	96012.1	-0.01975	3.35801	-0.0197505	-0.00464554	0.17151	0.00185881	-0.177637	1	-0.309969	0.00122538	0.000633433	0.000000000000000E+000	0.000000000000000E+000	-3.64838e-06	0.177637	0.000000000000000E+000	0.177637	0.0000000E+000	0.0000000E+000	-0.01975	0.000000000000000E+000	-6.63223e-05	3.66798	170022
1	0	0	1	0	0	1	14	103036	-0.01975	3.22782	-0.0197504	-0.00135633	0.132977	0.00198619	-0.21617	1	-0.309778	0.00122538	0.000760812	0.000000000000000E+000	0.000000000000000E+000	-2.8287e-06	0.21617	0.000000000000000E+000	0.21617	0.0000000E+000	0.0000000E+000	-0.01975	0.000000000000000E+000	-6.37507e-05	3.53759	163430
1	0	0	1	0	0	1	14	104794	-0.01975	3.09747	-0.01975	-0.000475375	0.123331	0.0020168	-0.225816	1	-0.309721	0.00122538	0.000791421	0.000000000000000E+000	0.000000000000000E+000	-2.62351e-06	0.225816	0.000000000000000E+000	0.225816	0.0000000E+000	0.0000000E+000	-0.01975	0.000000000000000E+000	-6.11749e-05	3.40719	156834
1	0	0	1	0	0	1	14	105552	-0.01975	2.96703	-0.0197498	-0.000226531	0.119174	0.00202944	-0.229973	1	-0.309606	0.00122538	0.000804061	0.000000000000000E+000	0.000000000000000E+000	-2.53508e-06	0.229973	0.000000000000000E+000	0.229973	0.0000000E+000	0.0000000E+000	-0.01975	0.000000000000000E+000	-5.85982e-05	3.27664	150231
1	0	0	1	0	0	1	14	105971	-0.01975	2.83655	-0.0197498	-0.000149527	0.116874	0.00203613	-0.232273	1	-0.309454	0.00122538	0.000810744	0.000000000000000E+000	0.000000000000000E+000	-2.48617e-06	0.232273	0.000000000000000E+000	0.232273	0.0000000E+000	0.0000000E+000	-0.01975	0.000000000000000E+000	-5.60212e-05	3.146	143624
1	0	0	1	0	0	1	14	106283	-0.01975	2.70582	-0.0197497	-0.000123164	0.115163	0.00204087	-0.233983	1	-0.309492	0.00122538	0.000815489	0.000000000000000E+000	0.000000000000000E+000	-2.44977e-06	0.233983	0.000000000000000E+000	0.233983	0.0000000E+000	0.0000000E+000	-0.01975	0.000000000000000E+000	-5.34392e-05	3.01532	137006
1	1	0	0	0	0	2	14	106319	0.01975	2.78044	0.0197538	1.2555e-06	0.114984	0.0020414	9.17152e-06	2	-0.310847	2.51283e-08	0.000000000000000E+000	0.000000000000000E+000	0.000000000000000E+000	-2.44596e-06	0.000000000000000E+000	9.17152e-06	9.17152e-06	0.0000000E+000	0.0000000E+000	0.01975	1	5.49242e-05	3.09129	140755
1	1	0	0	0	0	2	14	106323	0.01975	2.91147	0.0197542	1.93701e-06	0.115005	0.00204146	3.01682e-05	2	-0.310961	8.49811e-08	0.000000000000000E+000	0.000000000000000E+000	0.000000000000000E+000	-2.44641e-06	0.000000000000000E+000	3.01682e-05	3.01682e-05	0.0000000E+000	0.0000000E+000	0.01975	1	5.75139e-05	3.22243	147385
1	1	0	0	0	0	2	14	106328	0.01975	3.04212	0.019754	2.87095e-06	0.115037	0.00204156	6.14874e-05	2	-0.311152	1.7834e-07	0.000000000000000E+000	0.000000000000000E+000	0.000000000000000E+000	-2.44707e-06	0.000000000000000E+000	6.14874e-05	6.14874e-05	0.0000000E+000	0.0000000E+000	0.01975	1	6.00942e-05	3.35328	154000
1	1	0	0	0	0	2	14	106337	0.01975	3.17262	0.0197545	4.90014e-06	0.115085	0.00204171	0.000109908	2	-0.311285	3.29085e-07	0.000000000000000E+000	0.000000000000000E+000	0.000000000000000E+000	-2.4481e-06	0.000000000000000E+000	0.000109908	0.000109908	0.0000000E+000	0.0000000E+000	0.01975	1	6.26737e-05	3.48391	160602
1	1	0	0	0	0	2	14	107176	0.01975	3.30264	0.0197544	0.00273885	0.11969	0.00205686	0.00471511	2	-0.311629	1.54824e-05	0.000000000000000E+000	0.000000000000000E+000	0.000000000000000E+000	-2.54607e-06	0.000000000000000E+000	0.00471511	0.00471511	0.0000000E+000	0.0000000E+000	0.01975	1	6.52417e-05	3.61427	167185
1	1	0	0	0	0	2	14	121177	0.01975	3.43114	0.0197541	0.00658477	0.196514	0.00231556	0.0815394	2	-0.311648	0.00027418	0.000000000000000E+000	0.000000000000000E+000	0.000000000000000E+000	-4.18028e-06	0.000000000000000E+000	0.0815394	0.0815394	0.0000000E+000	0.0000000E+000	0.01975	1	6.77792e-05	3.74279	173692
1	1	0	0	0	0	2	14	132800	0.01975	3.55881	0.0197536	0.00312914	0.260292	0.00253776	0.145317	2	-0.31182	0.000496382	0.000000000000000E+000	0.000000000000000E+000	0.000000000000000E+000	-5.53697e-06	0.000000000000000E+000	0.145317	0.145317	0.0000000E+000	0.0000000E+000	0.01975	1	7.02995e-05	3.87063	180160
1	1	0	0	0	0	2	14	140173	0.01975	3.68912	0.0197535	0.00335096	0.300754	0.00268444	0.185779	2	-0.311858	0.000643064	0.000000000000000E+000	0.000000000000000E+000	0.000000000000000E+000	-6.39768e-06	0.000000000000000E+000	0.185779	0.185779	0.0000000E+000	0.0000000E+000	0.01975	1	7.28731e-05	4.00098	186758
1	1	0	0	0	0	2	14	147448	0.01975	3.81954	0.0197535	0.00286658	0.340669	0.0028342	0.225694	2	-0.311991	0.000792817	0.000000000000000E+000	0.000000000000000E+000	0.000000000000000E+000	-7.24676e-06	0.000000000000000E+000	0.225694	0.225694	0.0000000E+000	0.0000000E+000	0.01975	1	7.54494e-05	4.13153	193360
2	1	0	1	0	0	3	14	151962	3.88835	3.88877	0.0165151	0.000142599	0.365439	0.00292976	0.250464	2	-0.311629	0.000888377	0.000000000000000E+000	0.000000000000000E+000	0.000000000000000E+000	-7.77367e-06	0.000000000000000E+000	0.250464	0.250464	0.0000000E+000	3.88835	0.0000000E+000	1	6.42234e-05	4.2004	235468
2	1	0	1	0	0	3	14	152352	3.88835	3.88888	0.00858028	7.34267e-05	0.366702	0.00293467	0.251727	2	-0.311438	0.000893289	0.000000000000000E+000	0.000000000000000E+000	0.000000000000000E+000	-7.80054e-06	0.000000000000000E+000	0.251727	0.251727	0.0000000E+000	3.88835	0.0000000E+000	1	3.33677e-05	4.20032	453235
2	1	0	1	0	0	3	14	152742	3.88835	3.88888	0.00638962	5.40894e-05	0.367498	0.00293776	0.252523	2	-0.311266	0.000896385	0.000000000000000E+000	0.000000000000000E+000	0.000000000000000E+000	-7.81747e-06	0.000000000000000E+000	0.252523	0.252523	0.0000000E+000	3.88835	0.0000000E+000	1	2.48485e-05	4.20015	608625