Folder: AMIDR/Fresh Data/276

Note: README (Instructions to get started).md
# Instructions
AMIDR runs on python with Jupyter Notebook. To begin, follow these instructions:

1. Download Anaconda at https://www.anaconda.com/download
2. Open up Anaconda and run Jupyter Notebook, which should open up in your browser
3. Download and extract this repository if you have not done so already
4. Navigate to "User Interface.ipynb" and continue from there

# File and Folder Descriptions
- Analyzed Data: All data analyzed in the paper "AMIDR: A Complete Pulse Method for Measuring Cathode Solid-State Diffusivity".
- Figures: All figures and their construction.
- Fresh Data: Raw data not yet analyzed. Feel free to use this for practice.
- Protocols: BioLogic protocols used for AMIDR testing.
- Batch Analysis.ipynb: One-button notebook for updating analysis.
- Dev Interface.ipynb: Similar to User Interface except used for future development.
- User Interface.ipynb: Where to perfrom AMIDR analysis.
- amidr.py: Backend code for AMIDR analysis. Experienced users can feel free to edit.

File: 276_230607_C11.mpt
EC-Lab ASCII FILE
Nb header lines : 95

Modulo Bat

Run on channel : 11 (SN 55107)
User :
CE vs. WE compliance from -10 V to 10 V
Electrode connection : standard
Potential control : Ewe
Ewe ctrl range : min = -10.00 V, max = 10.00 V
Safety Limits :
	Do not start on E overload
Acquisition started on : 06/07/2023 17:17:50.025
Technique started on : 06/07/2023 17:17:50.025
Loaded Setting File :  C:\Users\OEMS\Documents\EC-Lab\Data\Mitch\Protocols\AMIDR Form.mps
Saved on :
	File : 276_230607_C11.mpr
	Directory : C:\Users\OEMS\Documents\EC-Lab\Data\Mitch\Results\Formation\
	Host : 192.168.1.58
Device : VMP-3e (SN .003109)
Address : USB
EC-Lab for windows v11.43 (software)
Internet server v11.40 (firmware)
Command interpretor v11.40 (firmware)
Electrode material :
Initial state :
Electrolyte :
Comments :
Mass of active material : 1.855 mg
 at x = 0.000
Molecular weight of active material (at x = 0) : 0.001 g/mol
Atomic weight of intercalated ion : 0.001 g/mol
Acquisition started at : xo = 0.000
Number of e- transfered per intercalated ion : 1
for DX = 1, DQ = 49716.781 mA.h
Battery capacity : 0.417 mA.h
Electrode surface area : 0.001 cm²
Characteristic mass : 0.001 g
Volume (V) : 0.001 cm³
Record Ece
Cycle Definition : Charge/Discharge alternance
Ns                  0                   1                   2                   3
ctrl_type           CC                  CC                  CC                  CV
Apply I/C           C / N               C / N               C / N               C / N
current/potential   current             current             current             current
ctrl1_val           60.000              60.000              60.000              0.000
ctrl1_val_unit      µA                  µA                  µA                  V
ctrl1_val_vs        <None>              <None>              <None>              Emeas
ctrl2_val
ctrl2_val_unit
ctrl2_val_vs
ctrl3_val
ctrl3_val_unit
ctrl3_val_vs
N                   20.00               20.00               20.00               20.00
charge/discharge    Charge              Discharge           Charge              Charge
charge/discharge_1  Charge              Charge              Charge              Charge
Apply I/C_1         I                   I                   I                   I
N1                  0.00                0.00                0.00                0.00
ctrl4_val
ctrl4_val_unit
ctrl_seq            0                   0                   0                   0
ctrl_repeat         0                   0                   0                   0
ctrl_trigger        Falling Edge        Falling Edge        Falling Edge        Falling Edge
ctrl_TO_t           0.000               0.000               0.000               0.000
ctrl_TO_t_unit      d                   d                   d                   d
ctrl_Nd             6                   6                   6                   6
ctrl_Na             2                   2                   2                   2
ctrl_corr           0                   0                   0                   0
lim_nb              1                   1                   1                   1
lim1_type           Ewe-Ece             Ewe-Ece             Ewe-Ece             Time
lim1_comp           >                   <                   >                   >
lim1_Q              Q limit             Q limit             Q limit             Q limit
lim1_value          4.200               3.000               4.200               15.000
lim1_value_unit     V                   V                   V                   mn
lim1_action         Next sequence       Next sequence       Next sequence       Next sequence
lim1_seq            1                   2                   3                   4
rec_nb              2                   2                   2                   1
rec1_type           Time                Time                Time                Time
rec1_value          20.000              20.000              20.000              30.000
rec1_value_unit     mn                  mn                  mn                  s
rec2_type           Ewe-Ece             Ewe-Ece             Ewe-Ece             Ewe-Ece
rec2_value          0.010               0.010               0.010               0.010
rec2_value_unit     V                   V                   V                   V
E range min (V)     -10.000             -10.000             -10.000             -10.000
E range max (V)     10.000              10.000              10.000              10.000
I Range             10 µA               10 µA               10 µA               10 µA
I Range min         Unset               Unset               Unset               Unset
I Range max         Unset               Unset               Unset               Unset
I Range init        Unset               Unset               Unset               Unset
auto rest           0                   0                   0                   0
Bandwidth           5                   5                   5                   5

mode	ox/red	error	control changes	Ns changes	counter inc.	Ns	I Range	time/s	control/V/mA	Ewe/V	I/mA	dq/mA.h	(Q-Qo)/mA.h	|Energy|/W.h	Q charge/discharge/mA.h	half cycle	Ece/V	Energy charge/W.h	Energy discharge/W.h	Capacitance charge/µF	Capacitance discharge/µF	x	Q discharge/mA.h	Q charge/mA.h	Capacity/mA.h	Efficiency/%	control/V	control/mA	cycle number	P/W	Ewe-Ece/V	R/Ohm
1	1	0	1	0	0	0	14	0.000000000000000E+000	0.02085	2.68035	0.0207229	0.000000000000000E+000	0.000000000000000E+000	0.000000000000000E+000	0.000000000000000E+000	0	-0.313708	0.000000000000000E+000	0.000000000000000E+000	0.000000000000000E+000	0.000000000000000E+000	0.000000000000000E+000	0.000000000000000E+000	0.000000000000000E+000	0.000000000000000E+000	0.0000000E+000	0.0000000E+000	0.02085	0.000000000000000E+000	5.55446e-05	2.99406	129343
1	1	0	1	0	0	0	14	3.086	0.02085	2.80422	0.0208531	1.65787e-06	1.78762e-05	4.90754e-08	1.78762e-05	0	-0.320546	4.90754e-08	0.000000000000000E+000	0.000000000000000E+000	0.000000000000000E+000	-3.5956e-10	0.000000000000000E+000	1.78762e-05	1.78762e-05	0.0000000E+000	0.0000000E+000	0.02085	0.000000000000000E+000	5.84768e-05	3.12477	134475
1	1	0	1	0	0	0	14	7.6532	0.02085	2.93505	0.0208526	2.49085e-06	4.43325e-05	1.25117e-07	4.43325e-05	0	-0.320527	1.25117e-07	0.000000000000000E+000	0.000000000000000E+000	0.000000000000000E+000	-8.91701e-10	0.000000000000000E+000	4.43325e-05	4.43325e-05	0.0000000E+000	0.0000000E+000	0.02085	0.000000000000000E+000	6.12035e-05	3.25558	140752
1	1	0	1	0	0	0	14	16.5674	0.02085	3.06542	0.020853	6.18078e-06	9.59695e-05	2.80557e-07	9.59695e-05	0	-0.320642	2.80557e-07	0.000000000000000E+000	0.000000000000000E+000	0.000000000000000E+000	-1.93033e-09	0.000000000000000E+000	9.59695e-05	9.59695e-05	0.0000000E+000	0.0000000E+000	0.02085	0.000000000000000E+000	6.39234e-05	3.38607	147001
1	1	0	1	0	0	0	14	100.563	0.02085	3.19501	0.0208537	0.000162662	0.000582531	1.82055e-06	0.000582531	0	-0.3215	1.82055e-06	0.000000000000000E+000	0.000000000000000E+000	0.000000000000000E+000	-1.1717e-08	0.000000000000000E+000	0.000582531	0.000582531	0.0000000E+000	0.0000000E+000	0.02085	0.000000000000000E+000	6.66278e-05	3.51651	153211
1	1	0	1	0	0	0	14	3751.12	0.02085	3.31833	0.0208529	0.00695128	0.0217291	7.15206e-05	0.0217291	0	-0.320203	7.15206e-05	0.000000000000000E+000	0.000000000000000E+000	0.000000000000000E+000	-4.37059e-07	0.000000000000000E+000	0.0217291	0.0217291	0.0000000E+000	0.0000000E+000	0.02085	0.000000000000000E+000	6.91968e-05	3.63853	159130
1	1	0	1	0	0	0	14	19351.1	0.02085	3.39197	0.0208532	0.00695117	0.112094	0.000374384	0.112094	0	-0.31759	0.000374384	0.000000000000000E+000	0.000000000000000E+000	0.000000000000000E+000	-2.25466e-06	0.000000000000000E+000	0.112094	0.112094	0.0000000E+000	0.0000000E+000	0.02085	0.000000000000000E+000	7.07334e-05	3.70956	162660
1	1	0	1	0	0	0	14	34531.1	0.02085	3.50243	0.0208538	0.00547734	0.200026	0.000677129	0.200026	0	-0.31675	0.000677129	0.000000000000000E+000	0.000000000000000E+000	0.000000000000000E+000	-4.02331e-06	0.000000000000000E+000	0.200026	0.200026	0.0000000E+000	0.0000000E+000	0.02085	0.000000000000000E+000	7.3039e-05	3.81918	167951
1	1	0	1	0	0	0	14	43183	0.02085	3.63316	0.020853	0.00365413	0.250143	0.000855755	0.250143	0	-0.316502	0.000855755	0.000000000000000E+000	0.000000000000000E+000	0.000000000000000E+000	-5.03135e-06	0.000000000000000E+000	0.250143	0.250143	0.0000000E+000	0.0000000E+000	0.02085	0.000000000000000E+000	7.57623e-05	3.94966	174227
1	1	0	1	0	0	0	14	52046.4	0.02085	3.76411	0.0208531	0.00370804	0.301484	0.00104563	0.301484	0	-0.316044	0.00104563	0.000000000000000E+000	0.000000000000000E+000	0.000000000000000E+000	-6.06403e-06	0.000000000000000E+000	0.301484	0.301484	0.0000000E+000	0.0000000E+000	0.02085	0.000000000000000E+000	7.84933e-05	4.08015	180506
1	1	0	1	0	0	0	14	60524.3	0.02085	3.88471	0.0208534	1.15852e-09	0.350592	0.00123367	0.350592	0	-0.315205	0.00123367	0.000000000000000E+000	0.000000000000000E+000	0.000000000000000E+000	-7.05179e-06	0.000000000000000E+000	0.350592	0.350592	0.0000000E+000	0.0000000E+000	0.02085	0.000000000000000E+000	8.10093e-05	4.19992	186287
1	0	0	0	0	0	1	14	64804.5	-0.02085	3.76819	-0.0208508	-0.00228136	0.325801	0.00132846	-0.0247906	1	-0.312172	0.00123367	9.47903e-05	0.000000000000000E+000	0.000000000000000E+000	-6.55315e-06	0.0247906	0.000000000000000E+000	0.0247906	0.0000000E+000	0.0000000E+000	-0.02085	0.000000000000000E+000	-7.85697e-05	4.08036	180722
1	0	0	0	0	0	1	14	71110.9	-0.02085	3.63797	-0.0208511	-0.00296419	0.289276	0.00146362	-0.0613161	1	-0.311886	0.00123367	0.000229953	0.000000000000000E+000	0.000000000000000E+000	-5.81848e-06	0.0613161	0.000000000000000E+000	0.0613161	0.0000000E+000	0.0000000E+000	-0.02085	0.000000000000000E+000	-7.58557e-05	3.94986	174474
1	0	0	0	0	0	1	14	77825	-0.02085	3.50768	-0.0208509	-0.00357066	0.250389	0.00160248	-0.100203	1	-0.311695	0.00123367	0.000368809	0.000000000000000E+000	0.000000000000000E+000	-5.03631e-06	0.100203	0.000000000000000E+000	0.100203	0.0000000E+000	0.0000000E+000	-0.02085	0.000000000000000E+000	-7.31382e-05	3.81937	168226
1	0	0	0	0	0	1	14	91128.8	-0.02085	3.37872	-0.0208502	-0.00576919	0.173336	0.00186745	-0.177256	1	-0.311561	0.00123367	0.000633781	0.000000000000000E+000	0.000000000000000E+000	-3.48646e-06	0.177256	0.000000000000000E+000	0.177256	0.0000000E+000	0.0000000E+000	-0.02085	0.000000000000000E+000	-7.04469e-05	3.69028	162047
1	0	0	0	0	0	1	14	99387.3	-0.02085	3.2485	-0.0208504	-0.0018979	0.125504	0.00202647	-0.225088	1	-0.311351	0.00123367	0.000792794	0.000000000000000E+000	0.000000000000000E+000	-2.52439e-06	0.225088	0.000000000000000E+000	0.225088	0.0000000E+000	0.0000000E+000	-0.02085	0.000000000000000E+000	-6.77324e-05	3.55985	155800
1	0	0	0	0	0	1	14	101436	-0.02085	3.1181	-0.0208501	-0.000545231	0.113636	0.0020644	-0.236956	1	-0.311371	0.00123367	0.00083073	0.000000000000000E+000	0.000000000000000E+000	-2.28567e-06	0.236956	0.000000000000000E+000	0.236956	0.0000000E+000	0.0000000E+000	-0.02085	0.000000000000000E+000	-6.50127e-05	3.42948	149549
1	0	0	0	0	0	1	14	102248	-0.02085	2.98756	-0.0208503	-0.000242151	0.108935	0.00207879	-0.241657	1	-0.311466	0.00123367	0.000845123	0.000000000000000E+000	0.000000000000000E+000	-2.19112e-06	0.241657	0.000000000000000E+000	0.241657	0.0000000E+000	0.0000000E+000	-0.02085	0.000000000000000E+000	-6.22915e-05	3.29903	143286
1	0	0	0	0	0	1	14	102642	-0.02085	2.85696	-0.020851	-0.000135413	0.106652	0.00208548	-0.24394	1	-0.311447	0.00123367	0.00085181	0.000000000000000E+000	0.000000000000000E+000	-2.1452e-06	0.24394	0.000000000000000E+000	0.24394	0.0000000E+000	0.0000000E+000	-0.02085	0.000000000000000E+000	-5.95706e-05	3.16841	137018
1	0	0	0	0	0	1	14	102896	-0.02085	2.72651	-0.0208503	-9.96721e-05	0.105183	0.00208959	-0.245409	1	-0.311447	0.00123367	0.000855917	0.000000000000000E+000	0.000000000000000E+000	-2.11564e-06	0.245409	0.000000000000000E+000	0.245409	0.0000000E+000	0.0000000E+000	-0.02085	0.000000000000000E+000	-5.68487e-05	3.03796	130766
1	1	0	1	0	0	2	14	102961	0.02085	2.76061	0.0208542	1.16668e-06	0.104819	0.00209061	7.00356e-06	2	-0.313488	1.91037e-08	0.000000000000000E+000	0.000000000000000E+000	0.000000000000000E+000	-2.10833e-06	0.000000000000000E+000	7.00356e-06	7.00356e-06	0.0000000E+000	0.0000000E+000	0.02085	1	5.75702e-05	3.07409	132377
1	1	0	1	0	0	2	14	102964	0.02085	2.89128	0.0208539	1.7784e-06	0.104839	0.00209067	2.63215e-05	2	-0.313622	7.37828e-08	0.000000000000000E+000	0.000000000000000E+000	0.000000000000000E+000	-2.10872e-06	0.000000000000000E+000	2.63215e-05	2.63215e-05	0.0000000E+000	0.0000000E+000	0.02085	1	6.02946e-05	3.2049	138644
1	1	0	1	0	0	2	14	102969	0.02085	3.02166	0.0208548	2.63575e-06	0.104868	0.00209075	5.54306e-05	2	-0.313812	1.59966e-07	0.000000000000000E+000	0.000000000000000E+000	0.000000000000000E+000	-2.1093e-06	0.000000000000000E+000	5.54306e-05	5.54306e-05	0.0000000E+000	0.0000000E+000	0.02085	1	6.30159e-05	3.33547	144890
1	1	0	1	0	0	2	14	102977	0.02085	3.15226	0.0208543	4.3481e-06	0.104912	0.00209089	9.99984e-05	2	-0.313755	2.97772e-07	0.000000000000000E+000	0.000000000000000E+000	0.000000000000000E+000	-2.1102e-06	0.000000000000000E+000	9.99984e-05	9.99984e-05	0.0000000E+000	0.0000000E+000	0.02085	1	6.5738e-05	3.46601	151157
1	1	0	1	0	0	2	14	103115	0.02085	3.28232	0.0208544	0.000425411	0.105711	0.0020935	0.000898985	2	-0.31427	2.90687e-06	0.000000000000000E+000	0.000000000000000E+000	0.000000000000000E+000	-2.12627e-06	0.000000000000000E+000	0.000898985	0.000898985	0.0000000E+000	0.0000000E+000	0.02085	1	6.8451e-05	3.59659	157392
1	1	0	1	0	0	2	14	115554	0.02085	3.41163	0.0208551	0.0067825	0.177768	0.00233509	0.0729561	2	-0.314423	0.000244495	0.000000000000000E+000	0.000000000000000E+000	0.000000000000000E+000	-3.57562e-06	0.000000000000000E+000	0.0729561	0.0729561	0.0000000E+000	0.0000000E+000	0.02085	1	7.11498e-05	3.72605	163587
1	1	0	1	0	0	2	14	128490	0.02085	3.53742	0.0208544	0.00365448	0.252706	0.00259479	0.147894	2	-0.31469	0.000504197	0.000000000000000E+000	0.000000000000000E+000	0.000000000000000E+000	-5.08291e-06	0.000000000000000E+000	0.147894	0.147894	0.0000000E+000	0.0000000E+000	0.02085	1	7.37709e-05	3.85211	169624
1	1	0	1	0	0	2	14	135860	0.02085	3.66758	0.020854	0.0034918	0.295399	0.0027486	0.190587	2	-0.315071	0.000658007	0.000000000000000E+000	0.000000000000000E+000	0.000000000000000E+000	-5.94165e-06	0.000000000000000E+000	0.190587	0.190587	0.0000000E+000	0.0000000E+000	0.02085	1	7.64838e-05	3.98265	175869
1	1	0	1	0	0	2	14	143326	0.02085	3.79767	0.020855	0.00302864	0.338651	0.00290993	0.233838	2	-0.315358	0.000819339	0.000000000000000E+000	0.000000000000000E+000	0.000000000000000E+000	-6.81159e-06	0.000000000000000E+000	0.233838	0.233838	0.0000000E+000	0.0000000E+000	0.02085	1	7.92002e-05	4.11303	182099
2	1	0	0	0	0	3	14	148802	3.88481	3.88402	0.0136952	0.000117904	0.370262	0.00303149	0.265449	2	-0.314575	0.000940901	0.000000000000000E+000	0.000000000000000E+000	0.000000000000000E+000	-7.44742e-06	0.000000000000000E+000	0.265449	0.265449	0.0000000E+000	3.88481	0.0000000E+000	1	5.31926e-05	4.1986	283604
2	1	0	0	0	0	3	14	149192	3.88481	3.88402	0.0078956	6.82423e-05	0.371386	0.00303586	0.266573	2	-0.314194	0.000945267	0.000000000000000E+000	0.000000000000000E+000	0.000000000000000E+000	-7.47003e-06	0.000000000000000E+000	0.266573	0.266573	0.0000000E+000	3.88481	0.0000000E+000	1	3.06667e-05	4.19822	491923
2	1	0	0	0	0	3	14	149582	3.88481	3.88408	0.00625793	5.21437e-05	0.372143	0.0030388	0.26733	2	-0.314232	0.000948206	0.000000000000000E+000	0.000000000000000E+000	0.000000000000000E+000	-7.48525e-06	0.000000000000000E+000	0.26733	0.26733	0.0000000E+000	3.88481	0.0000000E+000	1	2.43063e-05	4.19831	620666
2	1	0	0	0	0	3	14	149642	3.88481	3.88414	0.00579778	4.96468e-05	0.372243	0.00303919	0.267431	2	-0.31406	0.000948598	0.000000000000000E+000	0.000000000000000E+000	0.000000000000000E+000	-7.48728e-06	0.000000000000000E+000	0.267431	0.267431	0.0000000E+000	3.88481	0.0000000E+000	1	2.25194e-05	4.1982	669936